timestamp,gyro_x,gyro_y,gyro_z,acc_x,acc_y,acc_z,conf_gyro,conf_acc
1669243042.2504,-0.0185005,-0.0101229,-0.0034907,1.8100001,-0.018,9.6620007,0.9937859778408511,0.9714571887346168
1669243042.2604,-0.018675,-0.0130027,-0.0034907,1.7820001,0.128,9.9120007,0.9864063258267524,0.945538847294922
1669243042.2704,-0.0171915,-0.0099484,-0.0046251,1.7120001,0.032,9.9320002,0.9848525977535831,0.9760501339592836
1669243042.2804,-0.0209439,-0.01213,-0.0050615,1.6480001,0.238,9.8700008,0.9716474668653189,0.9868767322497048
1669243042.2904,-0.0232129,-0.0144862,-0.0054978,1.7340001,0.058,10.0040007,0.9774729457394844,0.993438431740699
1669243042.3004,-0.0244346,-0.0150971,-0.0047124,1.8040001,0.066,9.6940002,0.9953392608472563,0.9619427269332693
1669243042.3104,-0.0231256,-0.0191986,-0.0063705,1.9640001,0.022,9.7420006,0.9801918586008395,0.9730974372647773
1669243042.3206,-0.0274889,-0.0172788,-0.0059341,1.7240001,-0.02,9.8580008,0.991067064979496,0.9793310411186466
1669243042.3304,-0.0254818,-0.019984,-0.0067195,1.6300001,0.114,9.9860001,0.9933974345558678,0.979003043905292
1669243042.3404,-0.0257436,-0.0195477,-0.0066323,1.6600001,0.08,10.2560005,0.998835260278578,0.956365396373458
1669243042.3504,-0.0216421,-0.019635,-0.0060214,1.8420001,0.084,10.0800009,0.9794152170976369,0.9983595382183379
1669243042.3604,-0.0166679,-0.0218166,-0.0032289,1.8280001,0.054,10.1400003,0.9751425761631126,0.9973754645584649
1669243042.3704,-0.0205076,-0.0215548,-0.0059341,1.8280001,0.042,10.1600008,0.9720360101503022,0.998687601047539
1669243042.3804,-0.0178896,-0.0243473,-0.0055851,1.6020001,-0.018,10.0720005,0.9992233584967974,0.9445545603835473
1669243042.3904,-0.0178896,-0.0256563,-0.0047124,1.6660001,-0.002,10.2340002,0.9980581737086115,0.9655517297297571
1669243042.4005,-0.0159698,-0.0254818,-0.0053233,1.8240001,-0.006,10.1240005,0.9933978796226318,0.9914698907258742
1669243042.4104,-0.018675,-0.0255691,-0.005236,1.8360001,-0.01,9.6620007,0.9879600538999216,0.9268383638125474
1669243042.4204,-0.0175406,-0.0282743,-0.0045379,1.8000001,-0.042,9.9860001,0.996115902350459,0.9475074211176704
1669243042.4304,-0.0156207,-0.0286234,-0.0034907,1.6880001,-0.144,10.434001,0.9883481521181409,0.9281505003016214
1669243042.4404,-0.0164934,-0.0289725,-0.0047997,1.6380001,-0.012,10.3060007,0.9887362503363601,0.9491476696478311
1669243042.4504,-0.0177151,-0.0295833,-0.0040143,1.72,0.08,10.1900005,0.9953397059140203,0.9944227022481118
1669243042.4606,-0.0169297,-0.0279253,-0.0040143,1.858,-0.058,10.1520004,0.9891252386881075,0.9872049263105999
1669243042.4704,-0.0139626,-0.0269653,-0.0015708,1.7240001,-0.078,9.7380009,0.9716465767317908,0.9133871808687057
1669243042.4804,-0.0137881,-0.027838,-0.0037525,1.8200001,-0.252,9.6200008,0.9871825222631909,0.9750659946835645
1669243042.4904,-0.0132645,-0.0258309,-0.003927,1.7980001,-0.07,9.684,0.9895133369063268,0.977034322446888
1669243042.5004,-0.0138754,-0.0251327,-0.0040143,1.6120001,-0.008,9.8480005,1.0,0.9862207542269573
1669243042.5104,-0.0193732,-0.0281871,-0,1.6300001,0.12,10.1220007,0.9673748259307945,0.9337279620931264
1669243042.5204,-0.0169297,-0.0253073,-0.0034034,1.9100001,-0.078,10.1520004,0.9790266738126535,0.9560374319680263
1669243042.5305,-0.0128282,-0.0228638,-0.0015708,1.784,0.014,9.7720003,0.9627140867780508,0.9064973857405869
1669243042.5404,-0.0111701,-0.0207694,-0.0041888,1.8920001,0.044,9.9500008,0.994950717562273,0.9481633827364571
1669243042.5504,-0.0097738,-0.019635,-0.0040143,1.6600001,-0.058,9.9980001,0.9879600538999216,0.9721131503534032
1669243042.5604,-0.0068068,-0.0189368,-0.0058469,1.6940001,-0.032,9.9920006,0.9918437064826986,0.9996718387470284
1669243042.5704,-0.0098611,-0.0146608,-0.0041888,1.682,-0.104,9.9660006,0.9871829673299549,0.994422669440189
1669243042.5804,-0.0040143,-0.0124791,-0.0043633,1.8740001,-0.042,9.9420004,0.9650444563544227,0.9826118170463162
1669243042.5904,-0.0040143,-0.0080285,-0.0050615,1.8420001,0.01,9.9640007,0.9832993147471779,0.9931103853154595
1669243042.6004,-0.0068068,-0.0066323,-0.0060214,1.7640001,0.024,10.0280008,0.9895133369063268,0.9999999835960385
1669243042.6105,-0.0055851,-0.0024435,-0.0043633,1.6120001,-0.082,10.0100002,0.9685400107189804,0.9816274645190955
1669243042.6205,-0.006545,-0.0017453,-0.0051487,1.582,-0.036,9.9980001,0.9953397059140203,0.9855644809328994
1669243042.6304,-0.0064577,-0.0003491,-0.0054105,1.9240001,-0.044,10.0960007,0.9945626193440538,0.9265101369437295
1669243042.6404,-0.0094248,0.0009599,-0.0048869,1.886,-0.158,10.0180006,0.9864063258267524,0.9996718879589139
1669243042.6504,-0.0120428,0.0013963,-0.0063705,1.8060001,-0.138,9.7920008,0.9798028702490922,0.9465231342062961
1669243042.6604,-0.0118682,0.0020071,-0.0053233,1.6720001,0.088,10.0680008,0.9972806420718808,0.9849083552744966
1669243042.6704,-0.0084648,0.0043633,-0.0045379,1.6680001,0.03,10.052,0.9918437064826986,0.987204778674945
1669243042.6804,0.0020944,0.0019199,-0.0025307,1.8660001,0.02,10.0780001,0.9518393254661583,0.9648955056475841
1669243042.6904,0.0006981,0.0007854,-0.0047997,2.0040002,-0.004,10.1740007,0.998834815211814,0.9642392487574882
1669243042.7004,0.0017453,0.0017453,-0.0019199,1.848,-0.204,9.5720005,0.996115902350459,0.9084658283316422
1669243042.7104,-0.0003491,-0.0027925,-0.0037525,1.794,-0.028,9.5420008,0.9933969894891038,0.9573497489006793
1669243042.7204,-0.007854,-0.0015708,-0.0031416,1.7300001,-0.146,9.6120005,0.9747544779448932,0.9796591203518095
1669243042.7304,-0.0133518,-0.0059341,-0.0025307,1.72,-0.032,9.8980007,0.9588304341952738,0.9734255657098254
1669243042.7404,-0.0120428,-0.0070686,-0.0034907,1.8520001,-0.102,9.8360004,0.9965040005686783,0.9770344864865051
1669243042.7504,-0.0111701,-0.0076794,-0.0034034,1.8280001,0.022,9.6940002,0.9984458268600668,0.9596462215130128
1669243042.7604,-0.0089012,-0.0080285,-0.0051487,1.8360001,0.02,9.4980001,0.9992233584967973,0.9688324564455417
1669243042.7704,-0.0084648,-0.0111701,-0.0036652,1.7980001,0.06,9.7380009,0.9945626193440538,0.9603022815555691
1669243042.7804,-0.0022689,-0.0137008,-0.0046251,1.774,-0.096,10.0700006,0.9879596088331576,0.9435704375117894
1669243042.7905,-0.0019199,-0.0128282,-0.0029671,1.8000001,0.068,10.0900002,0.987183857463483,0.997047336113417
1669243042.8004,-0.0003491,-0.015708,-0.0035779,1.8440001,-0.124,9.6860008,0.9914556082644793,0.9501320549829754
1669243042.8104,-0.0068068,-0.0179769,-0.0057596,1.9580001,0.094,9.5300007,0.9514507821811751,0.9881891312021659
1669243042.8205,-0.0067195,-0.0159698,-0.0031416,1.766,-0.036,9.0480003,0.9790266738126536,0.8799229186424893
1669243042.8304,-0.0099484,-0.0195477,-0.0045379,1.868,-0.046,9.2180004,0.9634907282812535,0.9537408117200383
1669243042.8404,-0.0090757,-0.017017,-0.0036652,1.5880001,-0.032,9.4620008,0.9809685001040421,0.9917981011907305
1669243042.8504,-0.0165806,-0.0198968,-0.0036652,1.8160001,0.124,10.0640001,0.9537811517575469,0.8487555883395326
1669243042.8605,-0.0234747,-0.014399,-0.0034907,1.7620001,-0.014,9.7720003,0.9945621742772898,0.9251979676467315
1669243042.8704,-0.0230383,-0.0153589,-0.0023562,1.9200001,0.05,9.4820004,0.9972806420718808,0.984252213212132
1669243042.8804,-0.0178024,-0.008203,-0.0031416,1.812,-0.078,9.3440008,0.9483437711016006,0.9642394127971047
1669243042.8905,-0.0111701,-0.0048869,-0.0028798,1.7180001,0.05,9.5080004,0.9545577932607494,0.9931103853154595
1669243042.9004,-0.0135263,-0.0047124,-0.0041888,1.738,-0.16,9.9040003,0.9844640544685999,0.9137151944860225
1669243042.9104,-0.0130027,-0.0006981,-0.005236,1.7420001,0.06,9.9100008,0.9844640544685999,0.9852365329314298
1669243042.9204,-0.0180642,-0.0009599,-0.0035779,1.7420001,0.058,10.0280008,0.9836874129653973,0.9809714044765393
1669243042.9304,-0.0226893,0.0047124,-0.0034907,1.7440001,-0.028,9.8100004,0.9631021849962701,0.9596461887050894
1669243042.9404,-0.0218166,0.0042761,-0.0011345,1.784,0.044,9.6380005,0.9836874129653972,0.980971404476539
1669243042.9504,-0.0234747,0.0070686,-0.0023562,1.9100001,-0.142,9.8700008,0.9747544779448932,0.9251978692229615
1669243042.9604,-0.0172788,0.0125664,-0.0023562,1.7820001,0.048,9.4760008,0.9968929889204255,0.8989515961857584
1669243042.9704,-0.0188496,0.0116064,-0.0019199,1.6320001,0.144,9.5100002,0.9992233584967974,0.9967191092445989
1669243042.9804,-0.0133518,0.0118682,-0.0027925,1.802,-0.082,9.7660007,0.9805799568190589,0.9402895139484653
1669243042.9904,-0.0049742,0.0143117,-0.0022689,1.8620001,-0.104,9.9760008,0.9712589235803355,0.9521003991502609
1669243043.0005,-0.0048869,0.0171042,-0.0020071,1.702,-0.106,10.1420002,0.9891252386881075,0.9986877978950791
1669243043.0104,-0.0054978,0.0197222,-0.0019199,1.5320001,-0.064,10.1920004,0.9860173374750051,0.973425631325672
1669243043.0204,-0.0114319,0.0191114,-0.0041888,1.682,-0.154,9.8320007,0.9662096411426085,0.9803152788181363
1669243043.0304,-0.0185005,0.0189368,-0.0022689,1.9580001,-0.072,9.6520004,0.9778619340912317,0.9977034781757814
1669243043.0404,-0.0226893,0.0152716,-0.0027925,1.988,-0.148,9.5180006,0.9953392608472563,0.9954069071396778
1669243043.0504,-0.0271399,0.01309,-0.0040143,1.7420001,0.174,9.5240002,0.9844636094018359,0.9648954728396609
1669243043.0604,-0.0335976,0.0126536,-0.0045379,1.388,-0.174,9.5680008,0.9708708253621162,0.9491478008795244
1669243043.0704,-0.0324631,0.0094248,-0.003927,1.6660001,0.162,10.0360003,0.9778614890244677,0.879594987044981
1669243043.0806,-0.0354302,0.0084648,-0.0031416,1.9080001,0.042,9.8940001,0.9945626193440538,0.9967191748604455
1669243043.0904,-0.0350811,0.0027925,-0.002618,2.006,0.178,9.526,0.9708703802953522,0.9780186585701474
1669243043.1004,-0.0430224,-0.0038397,-0.0018326,1.8960001,-0.01,9.5060005,0.9634907282812534,0.9511162926824651
1669243043.1105,-0.0477348,-0.0092502,-0.0007854,1.6900001,-0.004,9.7020006,0.9596070756984764,0.9973753825386565
1669243043.1204,-0.0481711,-0.0133518,-0.0020071,1.5760001,0.088,9.9180002,0.97436593465991,0.9694886969316763
1669243043.1304,-0.0462512,-0.0137881,-0.0015708,1.6760001,0.026,10.0680008,0.9914551631977153,0.9691604536588968
1669243043.1404,-0.03831,-0.0163188,-0.0017453,1.6600001,0.05,9.9960003,0.9766963042362817,0.989501382518972
1669243043.1505,-0.0411898,-0.0206822,-0.0019199,1.8980001,0.118,9.9240007,0.9669858375790471,0.9616146641040683
1669243043.1604,-0.0397935,-0.0210312,0.0010472,1.7620001,0.196,9.7140007,0.9914547181309513,0.9560373827561416
1669243043.1704,-0.039619,-0.0241728,0.0017453,1.8980001,-0.08,9.6640005,0.9836874129653972,0.9950787786946299
1669243043.1805,-0.0338594,-0.0228638,0.0010472,1.5960001,-0.066,9.4160004,0.9654329996394059,0.9074816398440382
1669243043.1905,-0.0229511,-0.0266163,0.0029671,1.71,-0.264,9.6360006,0.9766967493030457,0.9127309075746481
1669243043.2004,-0.0169297,-0.0259181,0.0016581,1.6380001,-0.18,9.8500004,0.964267369784456,0.9904857186422308
1669243043.2104,-0.0136136,-0.0270526,0.0029671,1.876,-0.188,9.9200001,0.996116347417223,0.9481635467760738
1669243043.2204,-0.0152716,-0.0229511,0.002618,1.5580001,0.096,9.6500006,0.9875710655481743,0.8884531591483087
1669243043.2304,-0.0177151,-0.0260054,0.0043633,1.664,-0.052,9.9900007,0.9677633692157778,0.9340560741342127
1669243043.2404,-0.01213,-0.0176278,0.0042761,1.6980001,-0.242,9.776,0.937468564722944,0.9983597022579541
1669243043.2505,-0.0064577,-0.0133518,0.0006981,1.6580001,-0.164,9.5500002,0.9397989342993159,0.9435704047038663
1669243043.2604,0.0012217,-0.0113446,0.0016581,1.6880001,-0.202,9.8060007,0.9720355650835382,0.9468510822077659
1669243043.2704,0.005236,-0.0084648,0.0041888,1.8840001,0.126,10.2360001,0.9836874129653972,0.9097783093039113
1669243043.2804,-0.0017453,-0.0056723,0.0009599,1.8240001,-0.12,9.7940006,0.9576648043403239,0.9166679567963754
1669243043.2904,0.0020071,-0.0033161,0.003927,1.5600001,-0.266,10.0040007,0.996115902350459,0.9849083388705347
1669243043.3004,0.0103847,0.0012217,0.0010472,1.4220001,0.012,9.8760004,0.9848525977535831,0.9146993501657035
1669243043.3104,0.0231256,0.005236,0.0018326,1.7320001,-0.352,9.8220005,0.9219326191915439,0.9022323721134284
1669243043.3204,0.0239983,0.013439,0.001309,1.7040001,0.068,9.2980003,0.9619374452748483,0.8628628477298921
1669243043.3305,0.0249582,0.0185005,0.0004363,1.8200001,-0.256,9.5140009,0.977084847521265,0.9146993009538186
1669243043.3405,0.0238237,0.0236492,0.0042761,1.5920001,-0.072,9.8900003,0.9650444563544227,0.994094475379294
1669243043.3504,0.018326,0.0285361,0.0020944,1.728,-0.492,9.7840004,0.9875715106149383,0.9261821725382977
1669243043.3604,0.0028798,0.0324631,0.0042761,1.6700001,-0.102,9.8860006,0.9584418909102905,0.9432423418746649
1669243043.3704,-0.0033161,0.0377864,0.0017453,1.6620001,-0.164,9.6740007,0.9856296843235498,0.9740817569840753
1669243043.3804,-0.0025307,0.0417134,0.0041888,1.7240001,-0.062,9.2540007,0.9751425761631126,0.9245417763724821
1669243043.3904,-0.0044506,0.0440696,0.0027925,1.7320001,0.074,8.9860001,0.9871829673299549,0.9593180766640028
1669243043.4005,-0.0068068,0.0496546,0.0047124,1.7300001,-0.006,8.9640007,0.9561115213339186,0.9849084536982663
1669243043.4105,-0.0074176,0.0531453,0.003927,1.6660001,0.02,9.0300007,0.9852411410385664,0.997375366134695
1669243043.4204,-0.0034907,0.0544543,0.0058469,1.71,0.04,8.9900007,0.9968934339871895,0.9960630656060042
1669243043.4304,-0.0054978,0.0576831,0.0044506,1.5480001,-0.146,9.1060009,0.9829112165289586,0.9901575737932213
1669243043.4404,-0.0033161,0.0575959,0.0034034,1.7820001,0.012,9.3800001,0.9852411410385664,0.9386493146301895
1669243043.4504,-0.0021817,0.0587303,0.0073304,1.8220001,-0.048,8.9220009,0.9825222281772114,0.9373369976975372
1669243043.4604,0.0053233,0.0558505,0.0048869,1.7640001,0.178,8.7200003,0.9902899784095294,0.978674751420627
1669243043.4704,0.0034907,0.0580322,0.0061959,1.8040001,-0.154,8.9020004,0.9926203479859013,0.9675201395128894
1669243043.4805,0.0120428,0.0601266,0.0042761,1.5640001,-0.042,9.066,0.9611603587048816,0.96916048646682
1669243043.4904,0.018326,0.0628318,0.0057596,1.6060001,-0.042,9.3120003,0.9533930535393276,0.9527565412126258
1669243043.5004,0.0240855,0.0618719,0.0056723,1.4960001,0.1,9.2200003,0.9790271188794175,0.9763782952122555
1669243043.5105,0.029147,0.0613483,0.0047124,1.9660001,0.012,9.3560009,0.9840755111836166,0.9150273801869815
1669243043.5204,0.0332485,0.0658862,0.0079412,1.6520001,-0.21,8.7660007,0.9471785863134147,0.8841879978854945
1669243043.5304,0.0354302,0.0555887,0.0060214,1.5920001,-0.192,8.4540005,0.9553348798307161,0.9360245167252681
1669243043.5404,0.0342957,0.0541052,0.0057596,1.626,-0.138,8.9400005,0.987182967329955,0.9235575550769544
1669243043.5505,0.0367392,0.0554142,0.0059341,1.6840001,-0.006,8.8300009,0.9825222281772114,0.9698167925688013
1669243043.5604,0.034383,0.0498292,0.0074176,1.562,0.164,8.9060001,0.9712589235803355,0.9816277105785204
1669243043.5704,0.0347321,0.0480838,0.0057596,1.7260001,0.092,9.1520004,0.9864063258267525,0.9445545439795855
1669243043.5805,0.0315905,0.0445932,0.0075922,1.8200001,-0.03,9.0780001,0.9786385755944342,0.9931102868916892
1669243043.5905,0.0327249,0.0416261,0.0054978,1.664,0.036,8.7920008,0.9825217831104474,0.9284788255942095
1669243043.6004,0.031765,0.0356047,0.0061087,1.784,0.0,8.7360001,0.9716474668653189,0.9954070055634477
1669243043.6104,0.0287979,0.0328122,0.0062832,1.6160001,0.0,8.5940008,0.9751425761631126,0.9491478500914095
1669243043.6205,0.0248709,0.0246091,0.0048869,1.7300001,0.046,8.9820004,0.9397984892325518,0.9101063557291512
1669243043.6305,0.0194604,0.0233874,0.0047124,1.6140001,0.056,8.9180002,0.9697056405739303,0.972113232373211
1669243043.6404,0.0209439,0.0194604,0.0028798,1.5880001,-0.012,8.8120003,0.9809685001040421,0.9711290438856072
1669243043.6504,0.0190241,0.0164934,0.0053233,1.7360001,0.16,9.2320004,0.9891256837548714,0.8825476181236407
1669243043.6607,0.0158825,0.0148353,0.0047997,1.6960001,0.162,9.04,0.9763077609512985,0.9622708225703941
1669243043.6704,0.0109956,0.0089012,0.0045379,1.6140001,0.06,9.1900005,0.9506741406779724,0.9944227350560355
1669243043.6804,0.01213,0.0050615,0.0041015,1.8620001,-0.008,9.21,0.9860173374750051,0.9645675248381911
1669243043.6905,0.0102974,0.0027925,0.005236,1.7,0.106,9.2260008,0.9867944240449716,0.9921262132318163
1669243043.7004,0.0073304,-0.0005236,0.0048869,1.692,0.112,9.408,0.9751430212298766,0.9704730002470121
1669243043.7104,0.0056723,-0.0007854,0.0031416,1.5880001,0.22,9.5600004,0.9860177825417691,0.9744097377934683
1669243043.7204,0.0071559,-0.0029671,0.0061087,1.654,0.126,9.566,0.9704813919436048,0.9963910464153976
1669243043.7305,0.0062832,-0.0045379,0.0059341,1.598,0.042,9.4500008,0.9976700754903922,0.9580059893868137
1669243043.7406,0.0034907,-0.0058469,0.0047997,1.608,0.244,9.4700003,0.9883485971849049,0.9619428909728861
1669243043.7504,0.0023562,-0.0098611,0.0066323,1.6400001,-0.058,9.6740007,0.9790271188794176,0.9917979371511138
1669243043.7605,0.0033161,-0.0096866,0.0057596,1.6220001,0.11,9.802,0.9996114567150167,0.9734256969415188
1669243043.7704,0.0,-0.0088139,0.0049742,1.6240001,-0.042,9.6820002,0.9778614890244677,0.9694886641237528
1669243043.7804,0.0010472,-0.0123918,0.005236,1.7340001,0.132,9.8800001,0.978250032309451,0.9347122490045001
1669243043.7904,0.0010472,-0.0116937,0.0064577,1.7320001,0.124,10.0020008,0.9976696304236282,0.9816274481151337
1669243043.8004,-0.002618,-0.0122173,0.0055851,1.6980001,0.166,9.9280005,0.9945621742772898,0.9891733360937319
1669243043.8104,0.0032289,-0.0127409,0.0062832,1.6160001,0.014,9.8780003,0.9918437064826986,0.9534127160829136
1669243043.8205,-0.0006109,-0.0154462,0.0068068,1.5960001,0.03,9.9520006,0.9972810871386448,0.9885171776274058
1669243043.8305,-0.0040143,-0.0155334,0.0066323,1.7260001,0.12,10.0620003,0.9852411410385664,0.9458669757399701
1669243043.8404,-0.0069813,-0.0181514,0.0081158,1.6140001,0.086,10.1300001,0.9685404557857444,0.9872048770987153
1669243043.8504,-0.0094248,-0.0171042,0.0072431,1.6620001,0.142,10.0960007,0.9976696304236282,0.9885171284155211
1669243043.8605,-0.0057596,-0.0144862,0.0075922,1.552,0.084,9.9360008,0.9735892931567074,0.9461950057612485
1669243043.8705,-0.0072431,-0.0161443,0.0059341,1.562,0.208,10.0040007,0.9933974345558678,0.9668640138544866
1669243043.8804,-0.0061959,-0.0166679,0.0072431,1.6700001,0.236,10.2560005,0.9965044456354423,0.936352645170316
1669243043.8905,-0.0095993,-0.0169297,0.006545,1.784,0.022,10.3800001,0.9867944240449716,0.9960631312218508
1669243043.9004,-0.010821,-0.016057,0.0061087,1.7340001,0.216,10.2000008,0.9996114567150167,0.9940947050347569
1669243043.9105,-0.0144862,-0.0202458,0.0079412,1.7720001,0.024,10.3100004,0.9568886079038853,0.9927821912545647
1669243043.9204,-0.0181514,-0.0180642,0.0060214,1.6600001,0.184,10.368,0.9980586187753755,0.9826118662582011
1669243043.9305,-0.0152716,-0.0164934,0.0074176,1.4480001,0.068,10.2640009,0.9864058807599884,0.9291350332724203
1669243043.9405,-0.0122173,-0.0153589,0.0048869,1.4840001,0.084,10.2600002,0.9700937387921497,0.9921262132318163
1669243043.9504,-0.0113446,-0.01309,0.0062832,1.4860001,0.124,10.3380003,0.9922322497676819,0.9803152296062513
1669243043.9604,-0.0175406,-0.0150098,0.0071559,1.83,0.096,10.4160004,0.9599951739166956,0.9353683910668651
1669243043.9705,-0.0178896,-0.0115192,0.0085521,1.6840001,0.052,10.1600008,0.9922318047009179,0.9268384130244323
1669243043.9805,-0.017017,-0.0125664,0.0075049,1.5640001,0.1,10.1400003,0.996116347417223,0.984908273254688
1669243043.9904,-0.0083776,-0.0099484,0.0077667,1.6880001,0.14,10.2620001,0.9510622388961917,0.9530847024655968
1669243044.0005,-0.0038397,-0.0035779,0.0071559,1.5100001,-0.22,10.0160007,0.9487318693198199,0.9435704703197129
1669243044.0105,-0.010821,0.0036652,0.0080285,1.3660001,0.04,8.9880009,0.9646563581362033,0.7782184711896531
1669243044.0205,-0.0389208,0.014748,0.0096866,1.8000001,0.762,8.6940002,0.8182316181097617,0.8585979653344261
1669243044.0304,-0.0403171,0.0225147,0.0176278,1.5920001,-0.58,9.3300009,0.9238748905496965,0.9596461394932044
1669243044.0405,-0.0548906,0.0200713,0.0122173,2.21,0.104,10.2140007,0.9700932937253856,0.8316954025992036
1669243044.0505,-0.0610865,0.0316777,0.009163,1.8000001,-0.1,10.3640003,0.9343615536433696,0.9566934920105831
1669243044.0605,-0.0600393,0.0248709,0.0106465,1.7220001,0.536,10.0640001,0.9716470217985548,0.9904857350461929
1669243044.0704,-0.0553269,0.0283616,0.0109956,1.2360001,0.306,9.4540005,0.996116347417223,0.7824835340286969
1669243044.0805,-0.0475602,0.0319395,0.0105592,1.4200001,0.316,9.2960005,0.979414772030873,0.9940945738030635
1669243044.0904,-0.0388336,0.0434587,0.0097738,1.6040001,0.474,9.3100004,0.991066619912732,0.941601912900926
1669243044.1004,-0.0238237,0.0619592,0.0088139,1.102,0.0,8.4300003,0.9887366954031243,0.6955424388166997
1669243044.1105,0.0213803,0.059603,0.0071559,1.8660001,-0.346,8.7420006,0.9712593686470996,0.7667355996051737
1669243044.1205,0.0236492,0.0592539,0.0034034,1.4200001,0.7,10.6780005,0.9918432614159346,0.6975109634275638
1669243044.1304,0.0231256,0.0610865,0.0085521,2.0020001,-0.498,10.8120003,0.9712589235803355,0.9156836698850013
1669243044.1405,0.0028798,0.0539307,0.0057596,1.6220001,0.328,9.9060001,0.865616096207165,0.7611582854493244
1669243044.1505,0.0028798,0.0641408,0.0049742,1.506,-0.624,9.4040003,0.9580537926920712,0.9471792598646989
1669243044.1604,0.006545,0.0551524,0.0037525,1.784,-0.208,9.2360001,0.9708708253621162,0.9498038445181192
1669243044.1705,0.022602,0.0636173,-0.0008727,1.7060001,-0.328,8.1400003,0.9036782058655527,0.8271022933349201
1669243044.1805,0.0404044,0.0585558,0.0040143,1.7180001,0.132,9.4280005,0.9293122712056427,0.8189002304860339
1669243044.1904,0.0239983,0.0583813,0.0064577,1.46,0.582,9.7620001,0.9370800214379608,0.9137152436979071
1669243044.2004,0.0081158,0.0454658,0.0031416,1.83,-0.054,8.6360006,0.8570708143381163,0.7893732143290842
1669243044.2105,-0.005236,0.0283616,0.0022689,1.432,-0.202,8.7920008,0.9071737602301103,0.9845803088492567
1669243044.7205,0.0185878,0.0318523,-0.0083776,1.3660001,-0.02,9.7740002,0.8978518368578591,0.8795950034489428
1669243044.7305,0.0129154,0.029147,-0.0101229,1.4180001,-0.058,9.4300003,0.9704813919436049,0.9583339537922452
1669243044.7405,0.0102974,0.0275762,-0.0087266,1.508,-0.088,9.0220003,0.9751425761631125,0.9527565740205489
1669243044.7505,0.005236,0.0246964,-0.0086394,1.5760001,-0.154,8.9540005,0.964268259917984,0.9891733360937321
1669243044.7608,-0.0003491,0.019984,-0.0099484,1.2180001,-0.182,9.4060001,0.9631026300630341,0.9799872323928961
1669243044.7705,-0.0034907,0.0064577,-0.0090757,1.4300001,-0.11,10.2300005,0.9498970541080058,0.8418657439995288
1669243044.7805,-0.0043633,0.0024435,-0.0085521,1.5600001,0.014,10.0560007,0.9836874129653972,0.9770344864865048
1669243044.7905,-0.0097738,-0.0063705,-0.0068068,1.7800001,0.05,9.9480009,0.9662096411426085,0.9757221039380056
1669243044.8008,-0.0105592,-0.0128282,-0.0071559,1.6760001,-0.082,9.7700005,0.9662096411426085,0.9589900302387633
1669243044.8105,-0.0089884,-0.021293,-0.0080285,1.6560001,-0.134,9.3260002,0.96543344470617,0.9324156287565118
1669243044.8205,-0.0094248,-0.023911,-0.0089012,1.4580001,-0.086,9.0800009,0.9825217831104474,0.9192926234696037
1669243044.8304,-0.0098611,-0.0320268,-0.0075049,1.414,-0.118,8.9880009,0.968151912500761,0.9829398634715559
1669243044.8405,-0.0045379,-0.0462512,-0.0060214,1.6840001,-0.142,9.1000004,0.9669862826458112,0.9333999812837328
1669243044.8504,-0.0084648,-0.0570723,-0.0050615,1.3700001,-0.078,9.2280006,0.93863374951113,0.958990128662533
1669243044.8605,-0.0137008,-0.066148,-0.0053233,1.4260001,-0.066,9.7260008,0.9351381951465723,0.9110904950048707
1669243044.8705,-0.0133518,-0.0678933,-0.0058469,1.2420001,-0.324,10.5740004,0.9914551631977153,0.8487555391276477
1669243044.8805,-0.0105592,-0.0714712,-0.0047997,1.3080001,-0.036,10.4100008,0.99883437014505,0.9366807736153645
1669243044.8904,-0.0144862,-0.0723439,-0.0085521,1.664,0.088,10.5220003,0.9619374452748483,0.9146994978013584
1669243044.9005,-0.0116937,-0.0649263,-0.0077667,1.7420001,-0.062,10.2240009,0.9510626839629558,0.9596463691486674
1669243044.9105,-0.0087266,-0.068766,-0.0061087,1.674,-0.024,10.2740002,0.9965044456354422,0.9908136502397394
1669243044.9207,-0.0098611,-0.0698132,-0.0071559,1.5180001,-0.124,10.2660007,0.9856292392567857,0.98950156296255
1669243044.9305,-0.0109956,-0.0697259,-0.0093375,1.378,-0.19,9.9980001,0.9856296843235498,0.9438983363013747
1669243044.9406,-0.0124791,-0.0657989,-0.0080285,1.182,-0.182,10.6700001,0.9832988696804139,0.9232294594398296
1669243044.9505,-0.016057,-0.0577704,-0.0095993,1.202,-0.068,10.8180008,0.9871829673299551,0.9911417458768642
1669243044.9604,-0.0189368,-0.0548033,-0.0111701,1.33,-0.138,10.5020008,0.9933974345558678,0.9806433252433757
1669243044.9704,-0.0224275,-0.0496546,-0.010472,1.6900001,0.004,10.6660004,0.9895137819730907,0.9360245987450762
1669243044.9805,-0.0292343,-0.0390081,-0.0103847,1.6400001,-0.058,10.5420008,0.9825222281772114,0.9803153116260593
1669243044.9905,-0.0313287,-0.0358665,-0.0102974,1.48,-0.182,10.1260004,0.9949507175622732,0.9258540112853264
1669243045.0005,-0.0253073,-0.0326377,-0.0101229,1.554,-0.164,10.2260008,0.9580537926920711,0.9744097541974301
1669243045.0105,-0.0315905,-0.0246091,-0.0119555,1.424,0.012,10.5580006,0.9996119017817807,0.9917980519788453
1669243045.0205,-0.0360411,-0.015708,-0.0103847,1.3740001,-0.15,10.6640005,0.9732011949384881,0.9681763143831771
1669243045.0305,-0.0369137,-0.0089884,-0.0069813,1.4660001,-0.092,10.6480007,0.9588295440617458,0.9970472540936084
1669243045.0404,-0.0445059,-0.0040143,-0.0087266,1.6800001,-0.14,10.4300003,0.9805799568190589,0.9927823224862583
1669243045.0505,-0.0475602,0.003927,-0.0071559,1.4820001,-0.236,10.2540007,0.9937855327740871,0.9543970522061729
1669243045.0605,-0.0499164,0.0094248,-0.0077667,1.3820001,-0.278,10.3320007,0.9623259885598315,0.9967192076683689
1669243045.0705,-0.0498292,0.0136136,-0.0060214,1.3340001,-0.19,10.2120008,0.9895128918395628,0.9580058745590823
1669243045.0804,-0.0513999,0.0137008,-0.0062832,1.5760001,-0.136,10.3660002,0.9914560533312433,0.9438985495528763
1669243045.0905,-0.0455531,0.0230383,-0.0038397,1.5140001,-0.224,10.2180004,0.9953392608472563,0.979987199584973
1669243045.1005,-0.0434587,0.0230383,-0.0047997,1.4440001,0.01,10.3400002,0.994951162629037,0.9734255493058639
1669243045.1104,-0.046513,0.0257436,-0.0050615,1.508,-0.194,10.0980005,0.973200749871724,0.9990157294925874
1669243045.1204,-0.0475602,0.0263545,-0.0047124,1.5460001,-0.196,9.6060009,0.9941740760590704,0.925854175324943
1669243045.1305,-0.0499164,0.0285361,-0.0058469,1.5100001,-0.062,9.5860004,0.9747544779448933,0.9688323908296952
1669243045.1406,-0.0451168,0.0300197,-0.0041888,1.304,-0.184,9.71,0.9778619340912317,0.9934384973565458
1669243045.1505,-0.0366519,0.0284489,-0.0041888,1.4440001,-0.15,9.7660007,0.9553344347639521,0.973425450882094
1669243045.1605,-0.0339467,0.0320268,-0.0048869,1.45,-0.192,9.5840006,0.9930088912708845,0.9780186585701474
1669243045.1706,-0.0348193,0.0300197,-0.0035779,1.6440001,-0.17,9.5600004,0.9891247936213434,0.9757221531498906
1669243045.1805,-0.0316777,0.0320268,-0.0047124,1.59,-0.272,9.1940002,0.9999999999999999,0.9478353527151788
1669243045.1905,-0.0327249,0.0280125,-0.0041015,1.462,-0.212,9.0760002,0.9840755111836165,0.9498038773260422
1669243045.2005,-0.034383,0.0260927,-0.0064577,1.5140001,-0.132,9.2460003,0.9906780766277486,0.9767063416374948
1669243045.2105,-0.0359538,0.0273144,-0.0047124,1.4400001,-0.172,9.3180008,0.9953392608472563,0.9937664125500926
1669243045.2204,-0.0342957,0.0233001,-0.0068941,1.4680001,-0.026,9.3200006,0.9844640544685999,0.9809713716686159
1669243045.2305,-0.0307178,0.0230383,-0.0054978,1.4640001,-0.182,9.5280008,0.9766963042362817,0.9409457052227151
1669243045.2415,-0.0297579,0.0197222,-0.0087266,1.47,-0.232,9.5900002,0.9953392608472563,0.9806434400711073
1669243045.2506,-0.022602,0.0192859,-0.010472,1.5480001,-0.254,9.316,0.9739778364416907,0.9714570903108469
1669243045.2605,-0.0198095,0.0171915,-0.0076794,1.3440001,-0.146,9.0760002,0.9658210978576253,0.9094501644549013
1669243045.2705,-0.0209439,0.014399,-0.0076794,1.432,-0.196,9.3600006,0.9926203479859013,0.9307752325906963
1669243045.2805,-0.0194604,0.0166679,-0.0080285,1.4440001,-0.24,9.5460005,0.994950717562273,0.9603024127872621
1669243045.2905,-0.0191986,0.0135263,-0.0083776,1.5460001,-0.374,9.3800001,0.9864063258267524,0.9885172924551375
1669243045.3005,-0.016057,0.0115192,-0.008203,1.5460001,-0.252,9.2680006,0.9763077609512985,0.9616148117397232
1669243045.3105,-0.0163188,0.0094248,-0.0092502,1.5420001,-0.274,9.2180004,0.9965044456354423,0.9947506994614667
1669243045.3204,-0.0150098,0.0054105,-0.0080285,1.452,-0.356,9.0800009,0.9708703802953522,0.9760502815949388
1669243045.3304,-0.0089012,0.0033161,-0.0075922,1.3940001,-0.41,9.2800007,0.961549347056629,0.9678482515539757
1669243045.3405,-0.0069813,8.73e-05,-0.0068068,1.388,-0.31,9.3240004,0.9735892931567074,0.9898294781560966
1669243045.3505,-0.0074176,-0.0027925,-0.0063705,1.5020001,-0.38,9.3360004,0.9879600538999216,0.9678482187460525
1669243045.3604,-0.010821,-0.0040143,-0.007854,1.4460001,-0.328,9.1680002,0.9728122065867407,0.9547250330155661
1669243045.3704,-0.010821,-0.0089884,-0.0071559,1.5140001,-0.386,9.2600002,0.9809689451708061,0.9642393635852198
1669243045.3805,-0.0075049,-0.0103847,-0.0061087,1.36,-0.25,9.4920006,0.9867948691117356,0.9904857514501545
1669243045.3905,-0.0050615,-0.0132645,-0.0070686,1.5300001,-0.358,9.842,0.9937855327740871,0.8969832028065878
1669243045.4006,-0.0040143,-0.0132645,-0.0072431,1.4020001,-0.312,9.6820002,0.996115902350459,0.9452108008696816
1669243045.4105,-0.0010472,-0.0181514,-0.0068941,1.3820001,-0.41,9.7520008,0.9930088912708845,0.9757220383221591
1669243045.4206,0.0024435,-0.017017,-0.006545,1.6060001,-0.344,9.8980007,0.9996119017817807,0.9501319729631668
1669243045.4304,0.0029671,-0.0167552,-0.0070686,1.406,-0.382,9.5300007,0.9965044456354423,0.9130589868078111
1669243045.4406,0.0024435,-0.0207694,-0.0068068,1.4860001,-0.23,9.6900005,0.9856296843235498,0.9855645301447843
1669243045.4505,0.0046251,-0.0213803,-0.0075049,1.358,-0.374,9.6460009,0.9844644995353639,0.9954069399476012
1669243045.4606,0.0054105,-0.0228638,-0.0080285,1.312,-0.362,9.776,0.9875715106149383,0.9881892952417827
1669243045.4705,0.0049742,-0.0226893,-0.0080285,1.368,-0.326,10.0200005,0.9972815322054088,0.9566934592026594
1669243045.4806,0.0050615,-0.0220784,-0.0076794,1.4660001,-0.422,9.6880007,0.996115902350459,0.9773625821236293
1669243045.4905,0.0072431,-0.0238237,-0.0064577,1.5580001,-0.316,9.7440004,0.9879600538999216,0.9931103853154595
1669243045.5006,0.0021817,-0.0204204,-0.0069813,1.432,-0.33,9.7140007,0.9646568032029673,0.9767064072533419
1669243045.5104,-0.0017453,-0.0213803,-0.0054105,1.33,-0.336,9.8360004,0.9953388157804923,0.9957350191807645
1669243045.5205,-0.0035779,-0.0193732,-0.0050615,1.4180001,-0.242,10.1260004,0.9976700754903922,0.9534127324868751
1669243045.5305,-0.006545,-0.0178024,-0.0030543,1.4080001,-0.264,10.3040009,0.9972810871386448,0.9688323908296952
1669243045.5406,-0.0056723,-0.0187623,-0.0048869,1.5020001,-0.392,10.1260004,0.9914556082644793,0.9927823388902196
1669243045.5505,-0.0068068,-0.017366,-0.0046251,1.434,-0.272,9.9740009,0.9976696304236282,0.9442265959781159
1669243045.5605,-0.0086394,-0.0211185,-0.0041888,1.5200001,-0.296,10.2040005,0.9770844024545011,0.9442265795741543
1669243045.5705,-0.0086394,-0.0191986,-0.0041888,1.4120001,-0.28,10.184,0.9914551631977153,0.9763782131924469
1669243045.5805,-0.0094248,-0.0171915,-0.0034907,1.2700001,-0.15,10.2980003,0.9914556082644793,0.9740817897919984
1669243045.5905,-0.0140499,-0.018326,-0.0034034,1.2820001,-0.144,10.4560003,0.9747544779448932,0.9730975028806241
1669243045.6005,-0.0155334,-0.0171042,-0.0027925,1.4460001,-0.21,10.276,0.9984458268600668,0.9917980683828068
1669243045.6105,-0.0137008,-0.016057,-0.0027925,1.4400001,-0.148,10.0380001,0.9871829673299549,0.9498038937300041
1669243045.6205,-0.0089884,-0.0137008,-0.0034907,1.4660001,-0.166,10.1700001,0.9716474668653188,0.9711290274816455
1669243045.6305,-0.0031416,-0.0139626,-0.0020944,1.2880001,-0.146,10.500001,0.9689285540039637,0.9783466229755788
1669243045.6406,-0.0021817,-0.0178896,-0.0040143,1.4380001,-0.228,10.6440001,0.978249587242687,0.9383212518009881
1669243045.6505,-0.0070686,-0.0171042,-0.0037525,1.4540001,-0.112,10.4940004,0.9829107714621946,0.9589901450664948
1669243045.6605,-0.0083776,-0.0193732,-0.0054105,1.5500001,-0.188,10.1640005,0.9766963042362817,0.9740817569840753
1669243045.6706,-0.008203,-0.0213803,-0.0027925,1.4260001,0.028,9.9080009,0.9965040005686783,0.9114186726618035
1669243045.6805,-0.0064577,-0.0233874,-0.0044506,1.442,-0.198,9.6800003,0.9914551631977153,0.993110221275843
1669243045.6905,0.0009599,-0.0232129,-0.0044506,1.4200001,-0.138,10.4260006,0.9747544779448932,0.8910776289739971
1669243045.7005,0.0020071,-0.0234747,-0.0047997,1.296,-0.222,10.5700006,0.9926203479859013,0.9829398962794791
1669243045.7105,0.0030543,-0.0260054,-0.0025307,1.22,-0.16,10.6080008,0.9941745211258345,0.9835960711497668
1669243045.7206,-0.005236,-0.02522,-0.0045379,1.48,-0.23,10.7260008,0.9848521526868191,0.9265102517714607
1669243045.7305,-0.0028798,-0.0255691,-0.0034907,1.3640001,-0.22,10.3800001,0.9864063258267524,0.9225732025497337
1669243045.7405,-0.0071559,-0.0263545,-0.0038397,1.4720001,-0.156,10.4940004,0.9759196627330792,0.9740816913682289
1669243045.7505,-0.0069813,-0.019984,-0.0024435,1.2920001,-0.016,10.3720007,0.9646559130694393,0.927494538682835
1669243045.7606,-0.0031416,-0.0246091,-0.0028798,1.35,-0.274,10.5060005,0.9945626193440538,0.9261822217501822
1669243045.7705,-0.0032289,-0.0243473,-0.0008727,1.508,-0.09,10.5100002,0.9902904234762934,0.9963910792233207
1669243045.7805,-0.0036652,-0.023911,-0.0017453,1.3840001,-0.356,10.1060009,0.996116347417223,0.9570217516873241
1669243045.7905,-0.0073304,-0.026529,-0.0012217,1.406,-0.086,10.3200006,0.97436593465991,0.9944225874203806
1669243045.8005,-0.0101229,-0.0267908,-0.0017453,1.25,-0.244,10.6760006,0.9840759562503806,0.9412738172638014
1669243045.8105,-0.0089884,-0.0256563,8.73e-05,1.376,-0.122,10.5840006,0.9825222281772114,0.9855645137408225
1669243045.8206,-0.0017453,-0.0204204,-0.0017453,1.452,-0.122,10.0020008,0.9518393254661583,0.9169959868176536
1669243045.8304,0.008203,-0.0202458,-0.0007854,1.34,-0.116,9.7820005,0.9763082060180625,0.9445545603835476
1669243045.8405,0.0168424,-0.0222529,8.73e-05,1.5020001,-0.234,10.1580009,0.9557229780489354,0.8923899295026879
1669243045.8505,0.0247837,-0.0195477,0.0008727,1.36,-0.192,10.3040009,0.97320030480496,0.9937664781659391
1669243045.8605,0.03735,-0.0209439,0.0015708,1.432,-0.392,10.0760002,0.934750541995117,0.992782371698143
1669243045.8705,0.0411898,-0.0181514,0.0022689,1.2460001,-0.494,10.2820005,0.992231804700918,0.9799871011612028
1669243045.8805,0.0372628,-0.0164934,0.0012217,1.35,-0.302,10.2560005,0.9704822820771329,0.9812994673057404
1669243045.8906,0.0233874,-0.0137881,0.0037525,1.572,-0.428,10.1360006,0.9374685647229442,0.9625989510154426
1669243045.9005,0.0154462,-0.009512,0.0036652,1.4860001,-0.214,9.5240002,0.9452363149552622,0.8503958204657318
1669243045.9105,0.0111701,-0.0102974,0.0054978,1.5000001,-0.036,9.5860004,0.9926203479859013,0.9832679919166042
1669243045.9206,0.011781,-0.009163,0.0056723,1.304,-0.25,10.1120005,0.9984467169935948,0.9107624485796308
1669243045.9305,0.017366,-0.0061959,0.005236,1.1720001,-0.406,10.0440006,0.9902904234762934,0.9927822896783347
1669243045.9405,0.0109956,-0.0027925,0.0038397,1.322,0.014,9.8940001,0.9502855973929891,0.9356963718762581
1669243045.9505,0.0072431,0.0020944,0.0018326,1.3620001,-0.128,9.658,0.9712589235803355,0.9865487514403118
1669243045.9605,0.0109956,0.0028798,0.0045379,1.5140001,0.222,9.6000004,0.9677629241490138,0.9691604864668196
1669243045.9705,0.0137008,0.0109083,0.0033161,1.3900001,-0.154,9.3340006,0.9576656944738519,0.9248698884135682
1669243045.9805,0.0210312,0.0123918,0.0048869,1.4360001,-0.034,9.1700001,0.9537811517575469,0.9609584892337802
1669243045.9905,0.0279253,0.0139626,0.0024435,1.3380001,-0.142,9.1460009,0.97320030480496,0.9977035765995516
1669243046.0006,0.0303687,0.0142244,0.0028798,1.3720001,-0.192,9.2440004,0.9860182276085331,0.9701448718019645
1669243046.0105,0.0407534,0.0205076,0.0014835,1.4180001,-0.184,9.4720001,0.9320311840669978,0.9563655112011895
1669243046.0205,0.0495673,0.0257436,0.003927,1.4660001,0.018,9.3280001,0.9265933583442876,0.957021620455631
1669243046.0305,0.0523599,0.0246091,0.0038397,1.3800001,-0.034,9.0840006,0.9930088912708845,0.9484916424131979
1669243046.0406,0.0492183,0.0273144,0.0041015,1.404,-0.266,9.158,0.9992233584967973,0.9458670413558165
1669243046.0504,0.0527962,0.0315905,0.0038397,1.358,-0.178,9.3740005,0.9662096411426084,0.9865486694205038
1669243046.0606,0.0538434,0.0354302,0.0014835,1.378,-0.026,8.8580008,0.9887366954031243,0.8937023776670336
1669243046.0706,0.0589921,0.0368264,0.0038397,1.2640001,-0.022,8.6240005,0.960384162268443,0.9422580221553675
1669243046.0806,0.0671952,0.0363028,0.0045379,1.3340001,-0.108,9.368,0.9627136417112868,0.8523644270964036
1669243046.0905,0.0726057,0.0385718,0.0033161,1.386,-0.182,9.658,0.9712589235803355,0.9317595359060324
1669243046.1005,0.0690278,0.0387463,0.0046251,1.2460001,-0.21,9.4300003,0.9906785216945128,0.9442265959781162
1669243046.1105,0.0611738,0.0335976,0.0061087,1.342,-0.224,9.2700005,0.9487323143865839,0.9917980355748837
1669243046.1205,0.0499164,0.0299324,0.0041015,1.5180001,0.016,9.2020006,0.924651086986135,0.9835960711497671
1669243046.1305,0.0397935,0.026529,0.0063705,1.46,-0.022,9.132,0.9498974991747698,0.9799870519493178
1669243046.1406,0.0320268,0.0214675,0.0061959,1.432,0.0,9.1140003,0.9421288588089237,0.9888453552843391
1669243046.1505,0.0267908,0.0175406,0.0064577,1.2160001,-0.032,9.2940006,0.960384162268443,0.9993439071495204
1669243046.1605,0.0257436,0.0057596,0.0060214,1.2040001,-0.028,9.4580002,0.9409641190875018,0.9757222023617755
1669243046.1705,0.0287107,0.0021817,0.0054105,1.462,0.044,9.5480003,0.9945626193440538,0.940289579564312
1669243046.1806,0.0279253,-0.0049742,0.0057596,1.3260001,0.262,9.2220001,0.9895133369063268,0.9599743171501376
1669243046.1906,0.0250455,-0.0193732,0.0061087,1.4480001,0.2,9.4040003,0.9471781412466507,0.960302379979339
1669243046.2005,0.0238237,-0.0195477,0.0087266,1.3620001,0.112,9.3260002,0.9930097814044125,0.9586620002174847
1669243046.2105,0.0174533,-0.029147,0.0085521,1.258,0.004,9.3900003,0.9864058807599884,0.9757221367459293
1669243046.2206,0.0220784,-0.0352557,0.010472,1.3520001,-0.098,9.7080002,0.9436825868820929,0.9169959540097302
1669243046.2305,0.0253073,-0.0437205,0.0089884,1.4580001,0.02,9.5700006,0.9545582383275134,0.9819557077918747
1669243046.2405,0.0257436,-0.0550651,0.0076794,1.4440001,0.026,9.9160004,0.9533930535393276,0.9445546424033557
1669243046.2505,0.0231256,-0.0554142,0.007854,1.508,-0.05,10.0600004,0.9906789667612766,0.9619428253570396
1669243046.2606,0.0081158,-0.0583813,0.0090757,1.1420001,0.256,9.6260004,0.9518393254661583,0.9025604841545145
1669243046.2705,-0.0141372,-0.0617847,0.007854,1.21,0.166,10.1980009,0.9634907282812535,0.9097781452642949
1669243046.2805,-0.0297579,-0.0572468,0.0096866,1.258,0.218,10.4620008,0.942517847160671,0.9402895959682733
1669243046.2905,-0.03735,-0.0590794,0.0050615,1.3060001,0.052,10.3300009,0.9786385755944343,0.958990128662533
1669243046.3005,-0.0457276,-0.0603884,0.005236,1.5120001,0.668,10.5720005,0.9561115213339186,0.8254619135730661
1669243046.3105,-0.0496546,-0.056985,0.005236,1.3180001,0.298,10.3240004,0.9976696304236282,0.8667998149318112
1669243046.3205,-0.0550651,-0.0546288,0.0068941,1.034,0.296,10.3280001,0.9790266738126536,0.9537407625081533
1669243046.3305,-0.0575086,-0.0501782,0.003927,1.176,0.158,11.0080004,0.9778614890244677,0.8877968530463276
1669243046.3406,-0.0654498,-0.0411898,0.0053233,1.35,0.058,10.6380005,0.9984462719268308,0.9514442898958196
1669243046.3505,-0.0817687,-0.0359538,0.0003491,1.6100001,0.474,10.0220003,0.9728122065867407,0.9901576394090681
1669243046.3605,-0.0973021,-0.0233874,0.0045379,1.4540001,0.336,9.4920006,0.968151912500761,0.8648314051486792
1669243046.3705,-0.1157153,-0.021293,0.0051487,1.164,0.754,9.9560003,0.9246519771196631,0.902888612599563
1669243046.3806,-0.1069887,-0.0174533,0.0041015,1.176,-0.296,11.5020008,0.9394108360810967,0.8195563397404748
1669243046.3905,-0.0948586,-0.0060214,0.0032289,1.5040001,0.238,11.4220009,0.8912497164804909,0.9688324400415799
1669243046.4005,-0.0815941,0.0013963,-0.0016581,1.322,0.508,10.7700005,0.9133882274560232,0.9074815742281913
1669243046.4106,-0.0657989,0.0089012,0.0042761,1.3280001,0.23,10.3260002,0.9747544779448932,0.8825476017196789
1669243046.4205,-0.0764454,0.0152716,0.0029671,1.2440001,0.406,9.3100004,0.9300893577756093,0.8484274270865613
1669243046.4305,-0.0799361,0.0201586,0.005236,1.2440001,0.5420001,9.7520008,0.9526155219025969,0.9051850195960496
1669243046.4406,-0.0804597,0.0276635,0.0075922,1.6420001,-0.052,10.8140001,0.9537811517575469,0.8408817031475793
1669243046.4505,-0.0760964,0.0391826,0.0077667,0.826,0.538,10.6360006,0.9673752709975585,0.9166679403924138
1669243046.4605,-0.0744383,0.0325504,0.0049742,1.2880001,-0.41,10.9640007,0.9506741406779724,0.8914057410150835
1669243046.4706,-0.0748746,0.0394444,0.0020944,1.7460001,0.034,10.3400002,0.9801923036676035,0.911090445792986
1669243046.4805,-0.0623083,0.0439823,0.0010472,1.414,0.384,9.6120005,0.9596075207652404,0.8835319050350151
1669243046.4905,-0.0599521,0.0341212,0.0075922,1.238,0.368,10.3460007,0.9747544779448932,0.9110904950048709
1669243046.5006,-0.0645772,0.0350811,0.0020071,1.4860001,0.16,10.3500004,0.999999554933236,0.9927822896783344
1669243046.5105,-0.0532325,0.0380482,0.005236,1.376,0.09,8.5980005,0.977084847521265,0.6830754607644243
1669243046.5206,-0.078278,0.0216421,0.003927,1.2780001,0.368,8.9960003,0.9673748259307945,0.9051851180198193
1669243046.5305,-0.0693768,0.0290597,0.0054978,0.7320001,-0.298,9.6720009,0.9996119017817806,0.9901575245813363
1669243046.5406,-0.0542797,0.0197222,0.0109083,1.268,-0.318,10.7420006,0.9153300537474117,0.7332716490542288
1669243046.5505,-0.0483456,0.0211185,0.0090757,1.3800001,-0.12,9.9960003,0.9716474668653189,0.8635190061962179
1669243046.5606,-0.0432842,0.0145735,0.0071559,1.7360001,-0.388,10.1080008,0.9397993793660799,0.8792667601761631
1669243046.5705,-0.0268781,0.0080285,0.0057596,1.378,-0.258,9.5640001,0.8916378146987102,0.8307109844561359
1669243046.5806,-0.0013963,-0.0029671,0.0066323,1.1240001,0.326,9.6660004,0.8679464657835367,0.9862207378229958
1669243046.5906,0.0153589,-0.0142244,0.0055851,1.4900001,-0.232,10.4820004,0.8924153463354408,0.8215248971592617
1669243046.6005,0.0390081,-0.0167552,0.0094248,1.2460001,-0.818,9.5140009,0.8663922926436035,0.8973112820397509
1669243046.6105,0.0324631,-0.0178896,0.0082903,1.314,0.188,9.1360006,0.9708699352285882,0.8458026947974864
1669243046.6206,0.014399,-0.0145735,0.014399,1.082,-1.4860001,9.5680008,0.9320316291337618,0.7542686051489371
1669243046.6305,0.0120428,-0.0102102,0.0169297,1.0940001,0.382,8.7700005,0.9813570433890254,0.6899650754489653
1669243046.6405,-0.0122173,-0.0139626,0.0140499,1.2440001,-0.726,9.6700001,0.9953397059140204,0.7713288401011511
1669243046.6505,-0.0034907,-0.014748,0.0214675,1.4260001,-0.648,10.9560003,0.9976696304236282,0.7719849001437074
1669243046.6605,-0.0051487,-0.0162316,0.013439,1.8600001,-0.6720001,9.6440001,0.978250032309451,0.8599101510353854
1669243046.6705,0.0003491,-0.0238237,0.0123046,0.8100001,0.068,9.7880001,0.9926203479859013,0.7523001625578817
1669243046.6806,0.0099484,-0.0322886,0.011781,1.22,0.25,10.4540005,0.9219326191915439,0.7936381131285114
1669243046.6905,0.03831,-0.0325504,0.0192859,1.3260001,-0.158,10.1220007,0.8392049442971082,0.9478354511389484
1669243046.7005,0.0549779,-0.033074,0.0152716,1.5920001,-0.382,9.2560005,0.941352662372485,0.9383210713574102
1669243046.7106,0.0374373,-0.0277507,0.014748,1.3520001,-0.118,9.092,0.8959100105664706,0.8904214541037091
1669243046.7205,0.0445059,-0.0254818,0.0220784,-0.05,-0.24,9.8100004,0.9460129564584647,0.9242137463512037
1669243046.7305,0.0494801,-0.039619,0.0180642,1.554,-1.462,11.9420004,0.9328073805034364,0.20309554264677765
1669243046.7406,0.0737402,-0.0053233,0.0164061,1.2440001,-0.346,10.2540007,0.9479552278166173,0.4891806995808664
1669243046.7505,0.0773181,-0.0262672,0.0118682,1.7980001,-0.018,10.7700005,0.9110583029464155,0.8782826373044051
1669243046.7606,0.0991347,-0.0202458,0.0115192,1.59,-0.37,10.3500004,0.9312540974970311,0.9547250330155659
1669243046.7706,0.0962549,-0.0251327,0.0061087,1.314,0.416,9.0180006,0.9848525977535831,0.7437701517075256
1669243046.7806,0.0936369,-0.029147,0.0076794,1.6240001,0.398,8.8080006,0.9867948691117356,0.9865487350363507
1669243046.7906,0.0815069,-0.0256563,0.0085521,0.83,-0.094,8.6680002,0.9343615536433696,0.7969188726522194
1669243046.8005,0.0742638,-0.0344703,0.0069813,0.9480001,-1.0860001,9.5800009,0.999999554933236,0.6683117476364291
1669243046.8106,0.0320268,-0.0198968,0.0090757,1.386,-0.18,9.9240007,0.7564768243359086,0.9796590219280399
1669243046.8206,-0.0174533,-0.0144862,0.0077667,0.872,-0.052,9.2960005,0.9052314888719579,0.7916696541334944
1669243046.8305,-0.0178024,-0.0110828,0.014399,0.868,-1.052,10.7960005,0.9840755111836166,0.5905571170124242
1669243046.8406,-0.0250455,-0.010472,0.0092502,1.7340001,-0.286,10.9060001,0.9933974345558678,0.9655517297297571
1669243046.8506,-0.0205949,-0.0005236,0.0005236,2.1160002,1.1520001,10.4020004,0.8970756404214205,0.8779544432435105
1669243046.8605,-0.0218166,0.0020944,0.0059341,1.2240001,0.202,8.9960003,0.9634911733480175,0.4671992761312054
1669243046.8711,-0.0105592,-0.0019199,0.0071559,0.638,0.558,8.1300001,0.9545582383275135,0.8202125310147244
1669243046.8806,-0.0200713,0.0047997,0.0085521,1.3640001,0.478,10.0700006,0.93863374951113,0.5757934530963138
1669243046.8905,-0.0248709,0.023911,0.0102974,1.074,-0.13,9.71,0.8858127808913087,0.836288347823871
1669243046.9006,-0.0210312,0.0202458,0.0116937,1.3200001,0.196,8.4940004,0.9728126516535047,0.8517082686300769
1669243046.9106,-0.0238237,0.0204204,0.010821,1.396,-0.564,10.1700001,0.9906785216945128,0.6522360784629375
1669243046.9206,-0.010472,0.0315032,0.0075049,1.0760001,-0.052,10.4660006,0.9751430212298766,0.9120748639360531
1669243046.9306,-0.0176278,0.0206822,0.0014835,1.276,0.59,9.4440002,0.9568881628371212,0.9534126668710285
1669243046.9407,-0.0200713,0.0233001,0.0,1.6520001,0.588,9.2420006,0.9840759562503805,0.9717851039281631
1669243046.9505,-0.0240855,0.0314159,0.0061959,0.8340001,1.184,8.3960009,0.9184375098937503,0.8248057387027781
1669243046.9606,-0.0590794,0.0209439,0.0038397,1.7980001,0.33,9.184,0.9013478362891808,0.8526925719454137
1669243046.9706,-0.0649263,0.0351684,0.0,1.0,0.04,8.4580002,0.9277580980657094,0.7024321519250105
1669243046.9806,-0.0625701,0.016057,0.0028798,1.3560001,0.112,9.6220007,0.9172718800388002,0.7388488319783855
1669243046.9906,-0.0613483,0.0219911,-0.0034907,1.268,0.054,10.7440004,0.9763082060180625,0.8398973998322431
1669243047.0006,-0.0585558,0.0286234,-0.0047124,0.9080001,-0.272,9.3360004,0.9774729457394844,0.7457386107025425
1669243047.0105,-0.0604757,0.016057,-0.0034907,1.7260001,0.18,9.6420002,0.9471785863134147,0.8307111484957527
1669243047.0206,-0.06353,0.0240855,-0.0054105,1.378,-0.206,9.1800003,0.9421297489424517,0.8713929406000562
1669243047.0306,-0.0575959,0.0054105,-0.0034907,1.4940001,-0.084,9.0620003,0.8819286832417677,0.9796591039478483
1669243047.0406,-0.0546288,0.0054978,-0.0032289,1.276,0.26,9.1520004,0.986017782541769,0.992126098404085
1669243047.0506,-0.0472112,0.0024435,-0.0084648,1.1,0.052,8.3840008,0.9766963042362818,0.8110264273138886
1669243047.0606,-0.0369137,-0.005236,-0.0010472,0.9760001,-0.274,8.8500004,0.933584467073403,0.9074817054598847
1669243047.0705,-0.0358665,-0.0021817,-0.0030543,1.2140001,-0.216,10.0340004,0.9906785216945128,0.776249962982751
1669243047.0806,-0.0262672,-0.0006109,-0.0027925,1.636,-0.304,9.8080006,0.9491204126048032,0.9534127324868753
1669243047.0906,-0.0222529,-0.0027925,-0.0051487,1.3700001,-0.452,9.6660004,0.9976700754903922,0.9573496832848327
1669243047.1005,-0.0246091,-0.0062832,-0.008203,1.1960001,-0.228,8.8940001,0.960383717201679,0.808073599387689
1669243047.1105,-0.0225147,-0.0089012,-0.0025307,1.228,-0.396,8.9900007,0.977084847521265,0.9514441914720497
1669243047.1206,-0.0219039,-0.007854,-0.0027053,1.1700001,-0.262,9.1660004,0.9933978796226318,0.9973753333267716
1669243047.1305,-0.0073304,-0.0045379,0.0007854,1.22,-0.45,10.0580006,0.911834499382854,0.8146352168588746
1669243047.1406,-0.0095993,-0.0047997,0.0041015,1.3940001,-0.8100001,9.9880009,0.9739778364416907,0.9238855358863476
1669243047.1506,-0.0064577,-0.0023562,0.0,1.4820001,-0.232,9.6960001,0.9568881628371213,0.8717208721975646
1669243047.1605,-0.0112574,0.0024435,-0.0006109,1.0400001,-0.572,9.4140005,0.9755306743813319,0.9370088528485274
1669243047.1706,-0.0031416,-8.73e-05,0.0036652,0.812,-0.162,9.5740004,0.9669862826458112,0.9215890304660905
1669243047.1806,0.0071559,0.0020944,0.0019199,1.202,-0.248,10.5300007,0.9809685001040421,0.76509521984332
1669243047.1905,0.0123046,0.0113446,0.0028798,1.508,-0.622,10.1600008,0.9316430858487785,0.9491477024557542
1669243047.2007,0.0131772,0.0051487,0.0031416,1.536,-0.5100001,9.3980007,0.9774729457394844,0.8612224843719996
1669243047.2106,0.0111701,0.0053233,0.0043633,1.2240001,-0.554,9.5500002,0.9972815322054089,0.9809713224567304
1669243047.2206,0.0130027,-0.0002618,0.0053233,1.108,-0.44,9.8980007,0.9899018801913101,0.980643259627529
1669243047.2305,0.018675,0.0032289,0.0047997,1.238,-0.54,10.1760006,0.9638792715662368,0.9166678911805288
1669243047.2406,0.0142244,0.0029671,0.0056723,1.194,-0.238,9.8480005,0.9829103263954306,0.8894372820200662
1669243047.2505,0.0025307,0.0017453,0.0045379,1.378,-0.444,9.7460003,0.9374685647229442,0.9527566232324338
1669243047.2606,0.0089884,0.0046251,0.0059341,1.24,-0.568,9.1820002,0.9522278687511416,0.9051850852118961
1669243047.2705,0.023911,0.0010472,0.008203,1.176,-0.532,9.6460009,0.9394103910143325,0.9402894647365799
1669243047.2806,0.0180642,-0.0020071,0.0060214,1.3260001,-0.33,10.3180008,0.9685404557857444,0.8982954377194324
1669243047.2905,0.0100356,-0.0057596,0.0027053,1.2780001,-0.384,9.9620008,0.9662096411426085,0.9425861341964538
1669243047.3005,0.011781,-0.0084648,0.0038397,1.296,-0.354,9.9520006,0.9751430212298766,0.9963910792233207
1669243047.3105,0.0055851,-0.0077667,0.0028798,1.052,-0.202,9.8180008,0.9650449014211866,0.913059036019696
1669243047.3206,0.0024435,-0.011781,0.0043633,1.1980001,-0.392,9.9580002,0.9895133369063268,0.921917224526985
1669243047.3306,-0.0033161,-0.01309,-0.0003491,1.4480001,-0.064,10.0460005,0.9918437064826986,0.9983595546222997
1669243047.3406,-0.0068941,-0.0136136,-0.0013963,1.358,-0.47,10.184,0.9770844024545011,0.9255261124957416
1669243047.3505,-0.0132645,-0.0172788,-0.0025307,1.1700001,-0.196,10.3820009,0.9502860424597531,0.9566937052620845
1669243047.3606,-0.0200713,-0.0175406,-0.0031416,0.9220001,-0.122,10.6780005,0.9658210978576253,0.9957349043530329
1669243047.3705,-0.0319395,-0.0203331,-0.0030543,1.09,-0.27,10.9460001,0.9351386402133363,0.904200945936177
1669243047.3806,-0.0420624,-0.0204204,-0.0057596,1.304,-0.056,10.4980001,0.9425174020939071,0.926510251771461
1669243047.3906,-0.0568105,-0.0257436,-0.0064577,1.3980001,-0.138,10.4940004,0.9075623035150937,0.9717851203321249
1669243047.4006,-0.0596903,-0.0312414,-0.0050615,1.2440001,-0.24,10.3720007,0.9689281089371996,0.9714571559266931
1669243047.4105,-0.0577704,-0.0359538,-0.0068941,1.036,-0.132,10.2140007,0.9794152170976369,0.9222452053363785
1669243047.4206,-0.0573341,-0.0362156,-0.0064577,0.9300001,-0.088,10.0740004,0.9972810871386448,0.9524284783834241
1669243047.4306,-0.0608247,-0.0421497,-0.0062832,1.0960001,-0.398,10.7060003,0.9588304341952738,0.8182441212315921
1669243047.4406,-0.0571595,-0.0429351,-0.0096866,1.5420001,-0.274,10.9900007,0.9976696304236281,0.9005919267357276
1669243047.4505,-0.053058,-0.046164,-0.0080285,1.6420001,-0.306,10.776001,0.9887366954031241,0.9865488006521972
1669243047.4606,-0.0557633,-0.0473857,-0.0064577,1.258,-0.216,10.1480007,0.9895133369063268,0.8192282769112734
1669243047.4706,-0.0570723,-0.0513127,-0.0066323,0.966,0.086,10.3560009,0.9759192176663152,0.9648955548594691
1669243047.4806,-0.0576831,-0.0508763,-0.0057596,1.148,-0.374,10.9200001,0.9968920987868976,0.8303831676863593
1669243047.4905,-0.0490438,-0.0456404,-0.0046251,1.36,-0.494,10.5640001,0.9331968139219478,0.9960630492020427
1669243047.5006,-0.0466003,-0.0436332,-0.0083776,1.2360001,-0.18,10.6360006,0.9968925438536616,0.9399615987549185
1669243047.5106,-0.0475602,-0.0380482,-0.0064577,1.0880001,-0.408,10.7880001,0.9708703802953522,0.9619428909728861
1669243047.5205,-0.046164,-0.0354302,-0.006545,0.918,-0.14,10.5240002,0.9825226732439754,0.8848441891597443
1669243047.5306,-0.047822,-0.0316777,-0.0077667,1.0940001,-0.364,10.9960003,0.996115457283695,0.8569574215329556
1669243047.5406,-0.0482584,-0.0239983,-0.0054105,1.2540001,-0.558,11.2820005,0.9572771511888686,0.8950146125798776
1669243047.5505,-0.0429351,-0.0166679,-0.0075049,1.3540001,-0.562,10.9200001,0.9530040651875802,0.9576777133061104
1669243047.5606,-0.0480838,-0.0101229,-0.005236,1.2700001,-0.392,10.7920008,0.9836874129653973,0.9373369812935757
1669243047.5706,-0.0485202,-0.0024435,-0.0066323,1.0700001,-0.468,10.1240005,0.9739782815084547,0.8700805744555187
1669243047.5806,-0.0480838,0.0017453,-0.0049742,1.1980001,-0.498,10.1680002,0.9875706204814102,0.9668640466624094
1669243047.5906,-0.0455531,0.0087266,-0.0024435,1.174,-0.698,10.5720005,0.9914551631977153,0.9048569895747716
1669243047.6006,-0.0452913,0.0109083,-0.0024435,1.202,-0.508,10.2240009,0.9914551631977153,0.9163398611592508
1669243047.6105,-0.0486947,0.010472,-0.0007854,1.08,-0.48,10.1660004,0.9941740760590705,0.965879677731227
1669243047.6206,-0.0509636,0.01309,-0.0028798,1.2880001,-0.356,10.4320002,0.9689285540039637,0.9425861506004156
1669243047.6306,-0.0445059,0.0152716,-0.0016581,1.1900001,-0.438,9.7920008,0.9755311194480958,0.8923901099462662
1669243047.6406,-0.0342957,0.010821,-0.0001745,1.2600001,-0.622,9.8440008,0.9281466413506928,0.9498038773260425
1669243047.6505,-0.0250455,0.0114319,-0.0007854,1.2900001,-0.492,9.8920002,0.964268259917984,0.991469841513989
1669243047.6606,-0.0191986,0.007854,-0.0001745,1.302,-0.418,9.9280005,0.9553344347639521,0.9957350027768028
1669243047.6706,-0.0137881,0.0070686,-0.0016581,1.1620001,-0.558,9.9860001,0.9790271188794176,0.9904857514501545
1669243047.6806,-0.0034907,0.0014835,-0.0011345,1.0,-0.486,10.0120001,0.9269819016292709,0.9658797433470738
1669243047.6906,0.0036652,-0.0044506,-0.0013963,1.5380001,-0.688,10.4240007,0.9848525977535831,0.8110262468703103
1669243047.7006,0.0120428,0.0023562,0.0009599,1.3460001,-0.446,9.5760002,0.9739778364416907,0.7897011295226304
1669243047.7106,0.0150098,-0.0041888,-0.0012217,1.046,-0.604,8.8540001,0.9774733908062484,0.8582697384656085
1669243047.7206,0.0148353,-0.0071559,-0.0005236,0.988,-0.446,9.4960003,0.9906780766277486,0.930119090528332
1669243047.7305,0.0206822,-0.0101229,-0.0018326,1.12,-0.8,9.6220007,0.9549463365457328,0.8996076890362382
1669243047.7406,0.0267035,-0.0174533,-0.002618,1.2880001,-0.586,9.5640001,0.9370804665047248,0.9829397978557094
1669243047.7506,0.0283616,-0.0222529,-0.0028798,1.222,-0.7360001,10.0160007,0.9700937387921497,0.9120746670885136
1669243047.7606,0.0277507,-0.0258309,-0.0049742,1.24,-0.61,9.9740009,0.9774729457394844,0.9753940739167277
1669243047.7706,0.0280998,-0.0294961,-0.0038397,1.1880001,-0.532,9.8400002,0.9871829673299549,0.9566934427986982
1669243047.7806,0.0277507,-0.0300197,-0.0013963,1.184,-0.508,9.7840004,0.9899018801913101,0.9862206886111106
1669243047.7906,0.0288852,-0.034383,-0.001309,1.2620001,-0.512,9.7260008,0.9759196627330792,0.9960629671822343
1669243047.8006,0.0351684,-0.0337721,-0.0015708,1.0940001,-0.6900001,9.9460001,0.9735892931567074,0.9622709866100112
1669243047.8106,0.0439823,-0.0397062,-0.0045379,1.0420001,-0.8100001,10.2880001,0.9211559776883413,0.9327437572015598
1669243047.8205,0.0551524,-0.0374373,-0.0005236,1.166,-0.786,10.3940001,0.978250032309451,0.966207871792122
1669243047.8305,0.0464258,-0.033074,-0.0010472,0.882,-0.632,9.8620005,0.9440715752338403,0.8408816375317327
1669243047.8406,0.0324631,-0.0405789,0.0005236,1.4460001,-0.394,10.3940001,0.9689281089371996,0.8592540581849057
1669243047.8505,0.0239983,-0.0368264,0.0021817,1.182,-0.632,9.6980009,0.9530045102543443,0.8815635116558447
1669243047.8606,0.0142244,-0.0521853,0.0006109,1.5200001,-0.5560001,9.7580004,0.9821341299589921,0.9471792926726226
1669243047.8706,0.0129154,-0.0481711,0.0015708,1.118,-0.638,10.3520002,0.9805804018858228,0.9550532106724987
1669243047.8806,0.0150971,-0.0558505,0.0015708,1.036,-0.382,10.1620007,0.9561115213339186,0.9133871644647439
1669243047.8905,0.0098611,-0.0573341,0.0005236,1.1120001,-0.356,10.3440008,0.9786385755944342,0.9619427761451546
1669243047.9006,0.0028798,-0.0522726,0.0,1.4120001,-0.418,10.2020006,0.9440711301670763,0.9639113171599799
1669243047.9106,0.0013963,-0.053058,0.0001745,1.174,-0.274,10.2160006,0.9976696304236282,0.939633404694024
1669243047.9207,-0.0034034,-0.0555887,-0.0008727,1.2340001,-0.318,10.5740004,0.9766963042362818,0.9242137135432805
1669243047.9305,-0.0056723,-0.0519235,-0.0006981,1.156,-0.306,10.552,0.9930084462041205,0.9816274809230568
1669243047.9407,-0.0012217,-0.0519235,0.0005236,1.092,-0.228,10.1140003,0.9794152170976369,0.90485707159458
1669243047.9506,-0.0076794,-0.0496546,-0.0024435,0.9960001,-0.462,10.6520004,0.9728122065867407,0.8891091863829418
1669243047.9607,-0.0114319,-0.0454658,-0.0019199,1.5560001,-0.286,10.6460009,0.9957278041322397,0.9379929429123617
1669243047.9706,-0.0112574,-0.0421497,-0.0028798,1.148,-0.354,9.9520006,0.9887366954031241,0.8303829708388195
1669243047.9806,-0.0242601,-0.0467748,-0.0044506,1.3440001,-0.224,10.3100004,0.9145534122442092,0.9304472189733801
1669243047.9905,-0.0376991,-0.0375246,-0.006545,1.1400001,-0.04,10.4140005,0.9720355650835382,0.9534127652947988
1669243048.0007,-0.0434587,-0.0357792,-0.0077667,1.024,-0.254,10.2800007,0.9766967493030457,0.9940945902070254
1669243048.0106,-0.0500909,-0.0322886,-0.0045379,1.1160001,-0.076,10.8340006,0.9996119017817806,0.9232294594398298
1669243048.0206,-0.0544543,-0.0234747,-0.0058469,1.1120001,-0.33,10.6100006,0.9860182276085331,0.9957349699688794
1669243048.0305,-0.0562869,-0.0243473,-0.0062832,1.212,-0.216,11.0220003,0.9860182276085331,0.9347122982163854
1669243048.0406,-0.0600393,-0.0164061,-0.0075049,1.2080001,-0.236,10.7140007,0.9867944240449716,0.9521005139779927
1669243048.0506,-0.0630064,-0.0212057,-0.0080285,1.192,-0.252,10.4000006,0.9631026300630341,0.9484915275854668
1669243048.0606,-0.0652753,-0.0181514,-0.0086394,1.266,-0.162,10.6520004,0.9992233584967973,0.9612866832946753
1669243048.0706,-0.0547161,-0.0111701,-0.0053233,1.222,-0.218,10.4320002,0.9071742052968744,0.9658797269431119
1669243048.0806,-0.0484329,-0.0101229,-0.0048869,1.222,-0.332,10.2460003,0.965432554572642,0.9881891640100896
1669243048.0906,-0.0565487,-0.0076794,-0.0069813,1.136,-0.362,10.2200003,0.965432999639406,0.9865487514403118
1669243048.1005,-0.0663225,-0.010821,-0.0068941,1.404,-0.488,10.3300009,0.9429059453788903,0.9173239348191236
1669243048.1106,-0.0703368,-0.007854,-0.0059341,1.194,-0.286,10.2280006,0.9996114567150167,0.9156835878651929
1669243048.1208,-0.0675442,-0.0122173,-0.0041888,1.1980001,-0.346,9.9460001,0.9992229134300334,0.9642392979693729
1669243048.1305,-0.0736529,-0.0071559,-0.0029671,1.0040001,-0.36,9.9000006,0.9992238035635613,0.9629271286723757
1669243048.1406,-0.0802851,-0.0094248,-0.0034034,1.1340001,-0.472,9.9420004,0.9584423359770544,0.9534127816987603
1669243048.1506,-0.0880519,-0.0103847,-0.0031416,1.1120001,-0.192,10.0820007,0.9623255434930675,0.9734256313256723
1669243048.1607,-0.0958186,-0.0123918,-0.0006981,1.4360001,-0.484,10.4020004,0.9673752709975585,0.8464589680915441
1669243048.1705,-0.0953822,-0.0089884,-0.0017453,1.304,-0.042,10.1640005,0.9875710655481743,0.8667998313357728
1669243048.1806,-0.0945968,-0.0084648,-0.0027925,1.0200001,-0.208,10.3400002,0.998834815211814,0.9904857350461926
1669243048.1906,-0.0872665,-0.0045379,-0.0005236,1.026,-0.362,10.4640007,0.9397998244328439,0.9534126832749904
1669243048.2005,-0.0692023,0.0022689,-0.0011345,1.0680001,-0.552,10.0940008,0.9122225976010734,0.9773625657196681
1669243048.2106,-0.0588176,0.007854,0.0022689,1.5560001,-0.288,9.026,0.9836874129653973,0.8615504323734695
1669243048.2206,-0.0702495,0.0093375,0.0007854,1.074,-0.36,9.1600008,0.9491204126048032,0.9547251806512207
1669243048.2305,-0.0818559,-0.0024435,0.0042761,0.776,-0.5560001,11.0780001,0.9634907282812535,0.7021041547116554
1669243048.2406,-0.0877028,-0.0025307,0.0017453,1.008,-0.638,11.1800003,0.9848530428203471,0.9317595030981091
1669243048.2506,-0.0945968,-0.0101229,0.0049742,1.072,-0.504,10.9100008,0.9211559776883413,0.9442266123820777
1669243048.2606,-0.10088,-0.0158825,0.0029671,1.3820001,-0.318,10.7120008,0.9553344347639521,0.9878610847769261
1669243048.2706,-0.0974766,-0.0247837,0.0054105,1.228,-0.54,9.8240004,0.9646563581362033,0.8654874323833117
1669243048.2807,-0.1064651,-0.0314159,0.003927,1.2800001,-0.354,9.7160006,0.9370800214379609,0.9603024619991471
1669243048.2905,-0.108734,-0.0274017,0.0059341,0.882,-0.28,9.9660006,0.998834815211814,0.963583188714932
1669243048.3005,-0.1160644,-0.0358665,0.0068941,0.906,-0.272,10.6340008,0.9254281735561016,0.8877968694502891
1669243048.3105,-0.1140573,-0.0471239,0.0075049,1.3260001,-0.154,11.7820005,0.9561115213339186,0.7621425887646601
1669243048.3207,-0.1180715,-0.0458149,0.0068068,1.24,0.492,10.8000002,0.991067064979496,0.8802510142796137
1669243048.3305,-0.0800233,-0.0507018,0.0062832,0.938,-0.878,8.9960003,0.8500797056090008,0.7178518758836775
1669243048.3406,-0.01309,-0.0528835,0.0109083,1.5300001,-1.358,9.6320009,0.7323969321357517,0.7198202200509627
1669243048.3506,-0.0205076,-0.0568977,0.0054105,1.09,0.4,9.1460009,0.9735897382234713,0.6909493459563778
1669243048.3606,-0.043895,-0.0784525,0.0060214,1.442,-1.0880001,10.0140009,0.7972582919224154,0.6870123951584208
1669243048.3706,-0.0654498,-0.0702495,0.0089012,0.9300001,-0.654,10.5340004,0.9277585431324734,0.9301190413164473
1669243048.3806,-0.0774926,-0.0507891,0.0045379,0.42,0.184,9.7240009,0.947567129598398,0.7063691519348525
1669243048.3905,-0.0719948,-0.0445932,0.0119555,0.79,-0.938,9.6760006,0.9809685001040421,0.8234934217701255
1669243048.4006,-0.046164,-0.0245219,0.0109956,1.6620001,-0.432,9.9460001,0.7914328130482498,0.895670869469974
1669243048.4106,-0.0346448,0.0032289,0.0088139,2.3260002,-0.294,9.776,0.8442537816680712,0.9416018964969644
1669243048.4206,-0.0510509,0.0152716,0.0095993,1.1880001,-0.42,9.4380007,0.8698882920749251,0.7785466160386629
1669243048.4306,-0.0542797,0.0120428,0.009512,0.934,-0.74,11.0300007,0.9996114567150166,0.7280223321117338
1669243048.4406,-0.0645772,0.0286234,0.0113446,0.462,-0.6020001,11.0720005,0.8722182165845331,0.9068254813777117
1669243048.4505,-0.0739147,0.0375246,0.0076794,0.418,-0.22,10.9840002,0.9351381951465723,0.9156835714612314
1669243048.4606,-0.0590794,0.0719948,0.0128282,1.1700001,-0.768,9.8860006,0.8896959884073217,0.9668639154307166
1669243048.4707,-0.0301942,0.0862193,0.0185005,1.13,-0.9260001,7.7140002,0.9599956189834596,0.6630625619256276
1669243048.4806,-0.0172788,0.0784525,0.018326,1.9980001,-0.826,7.0600004,0.9071737602301103,0.9812994509017788
1669243048.4906,-0.0260927,0.096953,0.0198095,0.98,-0.78,8.9680004,0.8718301183663137,0.8615505800091243
1669243048.5006,-0.0356047,0.108734,0.0213803,1.0500001,-0.788,9.3780003,0.8982408252096065,0.9199486671081981
1669243048.5105,-0.0311541,0.1112647,0.0213803,0.252,-0.09,9.618,0.9914551631977153,0.7939661759577131
1669243048.5206,-0.0433714,0.1037598,0.023911,2.312,-0.596,9.4760008,0.9677633692157778,0.6023678381746037
1669243048.5306,-0.0452913,0.120515,0.0253073,1.7620001,-0.052,7.1060004,0.910668869527904,0.43176671894958873
1669243048.5406,-0.0344703,0.1016654,0.0274017,1.404,-0.938,5.9100003,0.87726749902226,0.8904215033155938
1669243048.5506,-0.0275762,0.0938114,0.0280998,0.814,-0.288,6.9120002,0.93746811965618,0.960958554849627
1669243048.5606,-0.0382227,0.0921534,0.0248709,0.432,-0.33,6.8880005,0.97436593465991,0.940289628776197
1669243048.5705,-0.0450295,0.0776671,0.0233874,0.9860001,-0.64,8.5860004,0.9592185324134931,0.5797305023180414
1669243048.5806,-0.0400553,0.0931133,0.0226893,1.72,0.188,9.6460009,0.9564996195521379,0.7798587689316988
1669243048.5906,-0.0411025,0.0959931,0.0229511,1.5460001,-0.002,8.3640003,0.9813570433890254,0.7306468675532689
1669243048.6006,-0.0405789,0.0798488,0.0254818,1.396,-0.064,7.5740004,0.9370800214379609,0.8559732166413896
1669243048.6106,-0.0358665,0.0721694,0.0279253,1.4360001,0.012,7.4280005,0.9557234231156994,0.9740817733880366
1669243048.6206,-0.0329867,0.0656244,0.0260927,1.0860001,-0.278,7.3260002,0.9498970541080058,0.9694885821039447
1669243048.6306,-0.0273144,0.0528835,0.0235619,1.212,-0.378,7.4160004,0.906785216945127,0.9481634647562651
1669243048.6406,-0.0230383,0.0455531,0.0215548,0.942,-0.316,7.6620002,0.9394103910143325,0.9858925601660626
1669243048.6506,-0.0300197,0.0345575,0.0222529,1.3340001,-0.016,8.5340004,0.9852411410385664,0.8418657604034907
1669243048.6607,-0.0263545,0.0385718,0.0213803,1.046,-0.278,8.3360004,0.9976700754903922,0.9632551094817688
1669243048.6706,-0.0209439,0.0273144,0.0223402,1.1960001,-0.136,8.2120008,0.9300884676420813,0.9809714864963474
1669243048.6806,-0.017366,0.0179769,0.0204204,0.9680001,-0.1,8.0220003,0.9339734554251503,0.9255259320521632
1669243048.6906,-0.0219911,0.0021817,0.0212057,1.0320001,-0.232,8.2540007,0.9537807066907829,0.9297909784872453
1669243048.7006,-0.0146608,-0.0047997,0.0241728,1.2880001,-0.358,8.474,0.992232694834446,0.9012482656456321
1669243048.7105,-0.0144862,-0.0083776,0.0228638,1.2160001,-0.226,8.5720005,0.9906789667612768,0.9826118826621627
1669243048.7206,-0.014399,-0.0174533,0.0224275,1.2820001,-0.202,8.9660006,0.9619370002080843,0.9284787107664779
1669243048.7305,-0.0123046,-0.0212057,0.0221657,1.3800001,-0.29,9.0360003,0.9937859778408511,0.9580059073670054
1669243048.7406,-0.0171915,-0.0250455,0.0222529,1.062,-0.32,8.9220009,0.9607722604866624,0.934056156154021
1669243048.7506,-0.0195477,-0.0349066,0.0206822,0.9760001,-0.342,9.2700005,0.9526155219025968,0.9534127981027216
1669243048.7606,-0.0268781,-0.0441568,0.0221657,1.0040001,-0.308,9.1880007,0.9196026946819362,0.9855645465487459
1669243048.7706,-0.0289725,-0.0547161,0.0240855,1.3460001,-0.182,9.3320007,0.9351381951465723,0.9409457380306382
1669243048.7806,-0.0295833,-0.0564614,0.0233874,1.2360001,-0.35,9.5780001,0.9926207930526652,0.9501320549829754
1669243048.7906,-0.0261799,-0.06353,0.0245219,1.2540001,-0.19,9.684,0.9786381305276702,0.994094557399102
1669243048.8006,-0.0262672,-0.0657116,0.0263545,1.008,-0.294,9.8640003,0.9817455866740088,0.9937664617619772
1669243048.8105,-0.0262672,-0.0733038,0.0253945,1.176,-0.278,10.1360006,0.9704822820771329,0.9304471533575334
1669243048.8206,-0.0230383,-0.0711222,0.0255691,1.0780001,-0.256,10.3440008,0.9766967493030457,0.9855644645289375
1669243048.8305,-0.0266163,-0.078278,0.02522,1.176,-0.234,10.6280003,0.9537811517575469,0.9409458364544081
1669243048.8406,-0.027838,-0.079587,0.0251327,1.4120001,-0.244,10.7440004,0.9891252386881074,0.9406176259895519
1669243048.8506,-0.0293215,-0.079587,0.0292343,1.1,-0.254,10.5660009,0.9751425761631125,0.9212610496566979
1669243048.8606,-0.0299324,-0.0813323,0.0292343,1.0600001,-0.3,10.8860006,0.9895133369063269,0.9465231178023348
1669243048.8705,-0.0350811,-0.0779289,0.0284489,1.062,-0.186,11.2420006,0.9957278041322396,0.9599743499580607
1669243048.8806,-0.0295833,-0.0776671,0.0289725,0.816,-0.326,11.4880009,0.9766963042362818,0.9770344044666968
1669243048.8906,-0.0259181,-0.0779289,0.0276635,1.2360001,-0.246,11.8980007,0.9790266738126535,0.8769703039677906
1669243048.9006,-0.0281871,-0.0710349,0.0286234,1.304,-0.262,11.9040003,0.9836878580321612,0.9852365165274679
1669243048.9106,-0.0289725,-0.070075,0.0302815,1.182,-0.214,11.802001,0.9933969894891038,0.9553813391175472
1669243048.9206,-0.0345575,-0.067457,0.0287979,1.294,-0.314,12.0980005,0.9933978796226318,0.9166679567963756
1669243048.9306,-0.0401426,-0.0603884,0.0308923,1.1120001,-0.256,12.0540009,0.9972810871386447,0.953412830910645
1669243048.9406,-0.0421497,-0.0527089,0.0298451,0.956,-0.164,12.0840006,0.9700932937253856,0.9642392979693729
1669243048.9506,-0.0364774,-0.0418879,0.0336849,0.9,-0.49,12.0440006,0.9436834770156209,0.9622708881862406
1669243048.9606,-0.0276635,-0.0348193,0.0327249,0.9820001,-0.114,12.6260004,0.9250396302711185,0.9527566068284723
1669243048.9705,-0.0341212,-0.026529,0.031765,1.4260001,-0.386,12.8880005,0.9875715106149383,0.8395692385792717
1669243048.9806,-0.0385718,-0.0182387,0.0321141,1.4960001,-0.108,12.2380009,0.9844644995353639,0.8592540745888673
1669243048.9906,-0.0445932,-0.0143117,0.0340339,1.092,-0.306,11.9420004,0.9821341299589921,0.9176520140522865
1669243049.0007,-0.0485202,-0.0074176,0.0356047,0.998,-0.098,11.8100004,0.9937855327740872,0.9288068064036027
1669243049.0106,-0.0424988,-0.0011345,0.0367392,1.018,-0.174,12.3400002,0.9502860424597531,0.8973112328278662
1669243049.0206,-0.0336849,0.0073304,0.0364774,1.092,-0.37,12.4140005,0.9871829673299549,0.9435703226840582
1669243049.0306,-0.0342085,0.0099484,0.0352557,1.4180001,0.006,11.9160004,0.9914551631977153,0.9120747655122835
1669243049.0406,-0.0354302,0.0191114,0.0359538,1.0580001,-0.238,11.2840004,0.9506741406779724,0.8753298913980139
1669243049.0506,-0.0350811,0.0187623,0.0369137,1.2320001,-0.134,11.4580002,0.998835260278578,0.9599743663620224
1669243049.0607,-0.0375246,0.0290597,0.0383972,1.0580001,-0.084,11.2300005,0.9366919232197415,0.9258541425170193
1669243049.0706,-0.0397935,0.0249582,0.0383972,1.286,-0.046,11.1340008,0.9918437064826986,0.9845802432334096
1669243049.0806,-0.0436332,0.0279253,0.0363901,1.3340001,-0.148,11.1660004,0.9786381305276702,0.9701448389940411
1669243049.0906,-0.0434587,0.0315905,0.0382227,1.0780001,-0.064,10.2860003,0.9763077609512985,0.7998716513665342
1669243049.1006,-0.0403171,0.0258309,0.0390954,0.952,0.032,10.2420006,0.96426781485122,0.9668640302584481
1669243049.1106,-0.038659,0.0262672,0.0366519,1.3000001,-0.12,10.3240004,0.9836869678986332,0.9150274950147136
1669243049.1207,-0.0305433,0.0242601,0.0368264,1.3180001,-0.08,9.8780003,0.9557234231156994,0.9232294430358683
1669243049.1308,-0.0333358,0.0177151,0.0372628,1.1140001,0.068,9.9800005,0.9852411410385664,0.981299516517625
1669243049.1407,-0.0389208,0.0150098,0.0371755,1.1700001,-0.224,10.3500004,0.9875719556817023,0.9045289595534931
1669243049.1506,-0.0359538,0.0140499,0.0389208,0.78,-0.118,9.6980009,0.9902904234762934,0.8116825857802148
1669243049.1607,-0.0379609,0.0053233,0.0395317,1.2060001,-0.016,10.1720009,0.9728126516535047,0.8690963695639526
1669243049.1706,-0.0419752,0.0060214,0.0383972,1.4640001,-0.104,10.0240002,0.9840759562503806,0.9675202707445827
1669243049.1806,-0.0349066,0.0035779,0.0376991,1.3080001,-0.036,8.7940006,0.9545577932607495,0.7614864631062573
1669243049.1906,-0.0368264,-0.0042761,0.0387463,0.9900001,-0.082,9.3340006,0.9836874129653973,0.9560373827561419
1669243049.2007,-0.0380482,-0.0087266,0.0394444,1.0420001,-0.028,9.7540007,0.9716474668653189,0.9314314238649458
1669243049.2106,-0.0335976,-0.0136136,0.0387463,1.156,-0.07,9.4500008,0.998835260278578,0.975722136745929
1669243049.2206,-0.0356047,-0.0198095,0.0401426,1.22,0.0,9.6640005,0.9572767061221046,0.9658798089629202
1669243049.2306,-0.0326377,-0.0266163,0.0406662,1.0480001,-0.018,9.6420002,0.9805799568190587,0.9711289946737218
1669243049.2406,-0.0290597,-0.0347321,0.0414516,1.0760001,-0.212,9.434,0.9763082060180625,0.9977034781757816
1669243049.2506,-0.0248709,-0.0408407,0.0406662,1.194,-0.054,9.2020006,0.994951162629037,0.9553813063096238
1669243049.2606,-0.0259181,-0.0457276,0.0415388,1.0600001,-0.252,9.2780008,0.9697056405739303,0.9770344044666964
1669243049.2707,-0.0269653,-0.0513999,0.0413643,1.3000001,0.01,9.3760004,0.9708703802953523,0.9842522624240166
1669243049.2807,-0.0245219,-0.0531453,0.0415388,1.026,-0.042,9.4560003,0.9976700754903922,0.9734255493058637
1669243049.2906,-0.0272271,-0.0576831,0.0413643,1.0940001,-0.07,9.6560001,0.9685404557857443,0.9514442898958196
1669243049.3007,-0.0254818,-0.0579449,0.0419752,1.2540001,0.024,9.5440006,0.9961163474172229,0.9996718387470284
1669243049.3106,-0.0255691,-0.0623083,0.0418879,1.2880001,-0.07,9.6920004,0.9805799568190587,0.9625990002273276
1669243049.3207,-0.0216421,-0.066148,0.042237,1.146,-0.052,9.3720007,0.998834815211814,0.9212610168487742
1669243049.3306,-0.0232129,-0.0672824,0.0445059,0.89,-0.042,9.3340006,0.9778619340912318,0.9501319401552439
1669243049.3407,-0.0228638,-0.067806,0.0459022,1.0020001,-0.058,9.7120008,0.9930088912708844,0.9169959047978452
1669243049.3506,-0.0185005,-0.0657989,0.0475602,0.998,-0.046,9.5320005,0.9790266738126535,0.9678481695341676
1669243049.3606,-0.0178024,-0.067806,0.0453786,1.3340001,-0.168,9.6880007,0.996116347417223,0.8992796262070368
1669243049.3706,-0.0184132,-0.0612611,0.0479093,1.184,-0.066,9.8640003,0.9848525977535832,0.9875329071199932
1669243049.3806,-0.0150098,-0.0608247,0.0469494,1.0380001,-0.098,10.0040007,0.9786381305276702,0.9957348879490711
1669243049.3906,-0.0166679,-0.0564614,0.0501782,1.1320001,0.014,9.8840008,0.9976696304236281,0.98195565857999
1669243049.4006,-0.0178896,-0.0536689,0.047822,1.2,0.038,9.6880007,0.9825222281772112,0.9829398470675941
1669243049.4107,-0.0136136,-0.0493928,0.0490438,1.33,0.056,9.8660002,0.9673752709975585,0.9465231670142192
1669243049.4206,-0.0118682,-0.0447677,0.0509636,0.9540001,-0.05,9.9300003,0.9801914135340755,0.9478354347349869
1669243049.4306,-0.016057,-0.0466003,0.0495673,1.018,0.056,10.3380003,0.9794152170976369,0.9215890796779759
1669243049.4407,-0.0180642,-0.0392699,0.051749,1.0380001,-0.014,10.1660004,0.9860182276085331,0.9681763471911008
1669243049.4506,-0.0189368,-0.0338594,0.0502655,1.1620001,-0.03,9.7960005,0.973200749871724,0.9622709045902025
1669243049.4606,-0.0177151,-0.0273144,0.0492183,1.182,0.098,9.7440004,0.9607722604866622,0.9940946066109873
1669243049.4706,-0.0188496,-0.0198095,0.0514872,1.1040001,-0.066,9.7300005,0.9817455866740088,0.9796591203518098
1669243049.4806,-0.0174533,-0.0171042,0.0519235,1.1500001,0.164,9.8400002,0.9836869678986332,0.9583339866001683
1669243049.4906,-0.0229511,-0.0136136,0.0512254,1.258,0.098,10.0140009,0.9941736309923065,0.964567344394613
1669243049.5006,-0.0216421,-0.0127409,0.0523599,1.314,0.146,10.1940002,0.9953392608472563,0.9534128637185684
1669243049.5106,-0.0172788,-0.0087266,0.0526217,1.1900001,-0.114,10.2220001,0.9638792715662368,0.9790029290775605
1669243049.5206,-0.014748,-0.0075049,0.0521853,1.1160001,0.102,9.9800005,0.9813565983222614,0.9461950713770944
1669243049.5306,-0.0179769,-0.0028798,0.0538434,0.942,-0.03,9.9920006,0.99883437014505,0.9616147297199151
1669243049.5406,-0.0213803,-0.0040143,0.0527962,1.1140001,0.078,9.8480005,0.9844640544685997,0.9875329891398016
1669243049.5506,-0.0231256,-0.001309,0.0520108,1.23,0.07,9.7960005,0.9922318047009179,0.990813797875394
1669243049.5606,-0.0245219,0.0001745,0.0548033,1.156,0.076,10.2880001,0.9864063258267524,0.9304472681852651
1669243049.571,-0.0227765,0.0059341,0.0554142,0.936,0.226,10.3440008,0.9794152170976369,0.99770356019559
1669243049.5807,-0.0247837,0.0051487,0.0548906,1.2,0.164,10.184,0.9968925438536616,0.9931104673352681
1669243049.5906,-0.0233001,0.0057596,0.0553269,1.342,0.164,9.8080006,0.9980577286418475,0.961614828143685
1669243049.6006,-0.0266163,0.0013963,0.0548906,1.396,0.184,9.7620001,0.9933978796226318,0.9954069727555246
1669243049.6106,-0.0259181,-0.0030543,0.0575959,1.33,0.262,9.8040009,0.9836878580321612,0.9911417294729024
1669243049.6207,-0.0246964,-0.0030543,0.0565487,0.802,0.19,9.7060003,0.9899018801913101,0.8855002492023005
1669243049.6306,-0.0241728,-0.0086394,0.0575959,1.0660001,0.122,10.1500006,0.9728122065867407,0.8950145797719544
1669243049.6407,-0.0236492,-0.0038397,0.0584685,1.036,0.228,10.2280006,0.9801914135340756,0.9747379154504014
1669243049.6506,-0.0244346,-0.0089884,0.0589921,1.4000001,0.134,10.2160006,0.9712589235803355,0.9576777625179956
1669243049.6606,-0.0233001,-0.0074176,0.059603,1.228,0.046,10.1000004,0.9906785216945128,0.9383210549534483
1669243049.6707,-0.0269653,-0.0107338,0.0590794,0.9680001,0.27,10.1900005,0.9712584785135716,0.9911418278966723
1669243049.6807,-0.0257436,-0.0126536,0.060912,1.1880001,0.29,10.4200001,0.9887366954031241,0.9229014458225134
1669243049.6906,-0.0236492,-0.0088139,0.0616974,1.296,0.342,9.9980001,0.977084847521265,0.9570216040516697
1669243049.7006,-0.0195477,-0.0136136,0.0616101,1.268,0.198,9.96,0.9972810871386448,0.9655516641139106
1669243049.7106,-0.0204204,-0.0140499,0.0616101,1.1620001,0.324,10.3060007,0.9941740760590705,0.9399613690994555
1669243049.7206,-0.0218166,-0.0154462,0.0638791,0.9120001,0.138,10.2240009,0.9774729457394844,0.9150275114186748
1669243049.7306,-0.0235619,-0.0177151,0.0632682,1.0700001,0.262,10.2860003,0.9848530428203471,0.9435704703197131
1669243049.7407,-0.0243473,-0.0153589,0.0644899,1.3160001,0.308,10.0940008,0.9984462719268308,0.9835959563220356
1669243049.7506,-0.0275762,-0.0198095,0.0634427,1.166,0.33,10.1260004,0.9704818370103688,0.984252114788362
1669243049.7606,-0.0247837,-0.0206822,0.0637918,1.148,0.164,10.4260006,0.9930093363376485,0.9809713716686159
1669243049.7707,-0.0227765,-0.0164061,0.0663225,1.024,0.272,10.2480001,0.9832984246136499,0.968176232363369
1669243049.7806,-0.029147,-0.0150971,0.0666716,1.192,0.394,10.0620003,0.9759192176663152,0.9829398470675944
1669243049.7908,-0.0313287,-0.0123046,0.0657989,1.2260001,0.422,10.1580009,0.9933974345558678,0.974081625752382
1669243049.8007,-0.0281871,-0.0112574,0.0681551,1.296,0.328,10.0840006,0.9918437064826986,0.9839240519591607
1669243049.8107,-0.0260927,-0.0119555,0.0672824,1.0420001,0.356,10.2740002,0.9899014351245462,0.9940945245911789
1669243049.8206,-0.0244346,-0.0123918,0.0667588,1.102,0.298,10.5480003,0.9922318047009178,0.9547250658234893
1669243049.8306,-0.0255691,-0.0156207,0.0694641,1.1720001,0.33,10.2320004,0.9685395656522163,0.9648955548594693
1669243049.8407,-0.0229511,-0.0172788,0.0668461,1.2180001,0.298,10.3120003,0.9840759562503806,0.9845802924452952
1669243049.8507,-0.0203331,-0.0176278,0.0692896,1.2060001,0.294,10.500001,0.9992233584967974,0.9717850711202399
1669243049.8606,-0.0184132,-0.0169297,0.069115,0.904,0.472,10.0360003,0.9875710655481742,0.903544574218349
1669243049.8707,-0.0213803,-0.0223402,0.0699004,1.098,0.322,10.2120008,0.9592185324134931,0.9639112023322481
1669243049.8807,-0.0272271,-0.0233001,0.0694641,1.222,0.386,10.276,0.9716474668653189,0.9586621478531399
1669243049.8906,-0.0262672,-0.0258309,0.070075,1.3000001,0.43,10.4020004,0.9902895333427654,0.9593180930679647
1669243049.9006,-0.0203331,-0.0261799,0.0712094,1.1440001,0.436,10.3820009,0.9801914135340755,0.9721133472009428
1669243049.9106,-0.0164934,-0.0284489,0.0716458,1.0380001,0.444,9.8900003,0.994951607695801,0.9032165277931095
1669243049.9206,-0.0142244,-0.0301942,0.0712094,1.23,0.39,9.5900002,0.9957269139987117,0.9734255493058637
1669243049.9306,-0.0132645,-0.0326377,0.0719948,1.108,0.312,9.75,0.9899014351245461,0.9934383825288143
1669243049.9406,-0.0176278,-0.0372628,0.0731293,1.256,0.338,10.2660007,0.9549463365457328,0.8868125497309917
1669243049.9506,-0.0175406,-0.0335976,0.073042,1.118,0.406,10.1420002,0.9829107714621946,0.968176232363369
1669243049.9607,-0.0145735,-0.0336849,0.0727802,0.904,0.44,10.0480003,0.9860177825417691,0.955053161460614
1669243049.9706,-0.0112574,-0.0321141,0.0747874,1.146,0.382,10.4820004,0.987183412396719,0.8986235005486335
1669243049.9807,-0.0112574,-0.0254818,0.0744383,1.314,0.394,10.3200006,0.9689281089371996,0.9970472540936087
1669243049.9907,-0.0150098,-0.0258309,0.0746128,1.348,0.5560001,10.1000004,0.980968945170806,0.9960630327980808
1669243050.0007,-0.0129154,-0.0201586,0.0770563,0.8940001,0.324,10.0500002,0.9763082060180623,0.8792668093880478
1669243050.0106,-0.0106465,-0.0168424,0.0774926,0.9720001,0.418,10.2060003,0.9770844024545011,0.9461949893572863
1669243050.0206,-0.0068941,-0.0068068,0.0760091,0.964,0.49,9.9620008,0.9320316291337619,0.9704729346311659
1669243050.0306,-0.0033161,-0.0027053,0.0773181,1.1800001,0.406,9.8800001,0.9716470217985548,0.991798117594692
1669243050.0406,0.0010472,0.0027925,0.0794997,1.33,0.33,9.9100008,0.999999554933236,0.9829397814517475
1669243050.0506,-0.0005236,0.0047124,0.0779289,1.12,0.384,9.6600008,0.9992233584967973,0.9333999156678863
1669243050.0607,-0.0021817,0.0036652,0.079587,0.9860001,0.408,9.7720003,0.9899014351245461,0.9996719863826836
1669243050.0706,-0.0044506,0.0080285,0.0777544,1.0580001,0.436,9.8000002,0.9786385755944343,0.9790029454815218
1669243050.0806,-0.0008727,0.009512,0.0778417,1.23,0.53,9.71,0.991067064979496,0.9711290766935302
1669243050.0906,0.0077667,0.0116937,0.0804597,1.2160001,0.476,9.3440008,0.9479552278166172,0.9288069540392574
1669243050.1007,0.009163,0.013439,0.0813323,1.1040001,0.564,9.2260008,0.9821341299589921,0.9767063744454184
1669243050.1106,0.0011345,0.0137008,0.0800233,0.8800001,0.432,9.6940002,0.9596070756984765,0.9816276613666352
1669243050.1206,0.0015708,0.0106465,0.0799361,1.184,0.39,10.1020002,0.9879600538999216,0.8900934732943159
1669243050.1306,0.0034034,0.0120428,0.0794997,1.3800001,0.486,9.7020006,0.9875715106149383,0.9822838034289995
1669243050.1407,0.0020071,0.0127409,0.0789761,1.2320001,0.578,9.4840002,0.9945621742772897,0.955053079440806
1669243050.1506,0.0046251,0.0102974,0.0797615,1.0040001,0.56,9.4660006,0.9957278041322396,0.9566936068383143
1669243050.1608,0.0067195,0.0061087,0.079587,1.1440001,0.482,9.3060007,0.9899023252580741,0.983924133978969
1669243050.1707,0.002618,0.0054978,0.0799361,1.1440001,0.578,9.1440001,0.9805804018858227,0.9891732868818467
1669243050.1807,0.0024435,0.0027053,0.0804597,1.2980001,0.516,9.3440008,0.9891252386881075,0.9521003171304525
1669243050.1906,0.0,0.0040143,0.0811578,1.0320001,0.666,9.2700005,0.9980577286418475,0.9688324236376186
1669243050.2007,-0.0045379,-0.0047124,0.0825541,0.874,0.532,9.3740005,0.9704818370103688,0.969160535678705
1669243050.2107,-0.0066323,-0.003927,0.0801979,1.268,0.6760001,9.6240005,0.9953392608472563,0.8707367657297684
1669243050.2206,-0.0023562,-0.0042761,0.0804597,1.2820001,0.518,9.5,0.9836874129653972,0.9560373007363335
1669243050.2306,-0.0014835,-0.0123046,0.0815941,1.312,0.484,9.6000004,0.9631030751297981,0.9842521475962852
1669243050.2406,0.0028798,-0.0137008,0.0813323,0.946,0.448,9.5680008,0.9887366954031243,0.9288068720194492
1669243050.2506,0.0056723,-0.0149226,0.080896,1.0400001,0.752,9.9700003,0.9840755111836166,0.8687683723505978
1669243050.2606,0.0064577,-0.0136136,0.0819432,1.0420001,0.64,9.9880009,0.9976696304236282,0.984908453698266
1669243050.2706,0.0061959,-0.0179769,0.0820305,1.3560001,0.61,9.8060007,0.9813570433890254,0.9832679919166039
1669243050.2807,0.0073304,-0.0214675,0.0836885,1.302,0.48,9.9540005,0.9720360101503022,0.9940945245911786
1669243050.2906,0.0061959,-0.0201586,0.0827286,0.844,0.54,9.8720007,0.9848530428203471,0.9212610168487742
1669243050.3007,0.007854,-0.0245219,0.0832522,0.974,0.494,10.2620001,0.9708703802953522,0.9222453201641101
1669243050.3106,0.0101229,-0.0260927,0.0828159,1.1520001,0.58,9.7140007,0.9848525977535831,0.9534128637185684
1669243050.3206,0.0092502,-0.0322013,0.0813323,1.3340001,0.6620001,9.75,0.9832997598139419,0.9507882134493019
1669243050.3307,0.0030543,-0.0301942,0.0823795,1.0940001,0.508,9.9040003,0.968151912500761,0.9606305248283488
1669243050.3407,0.0006981,-0.0353429,0.0831649,1.046,0.6760001,10.1200008,0.9840759562503805,0.9448826068087871
1669243050.3506,0.0016581,-0.0390954,0.0850848,1.1340001,0.59,10.3080006,0.9704813919436048,0.968832505657427
1669243050.3607,-0.0020071,-0.0382227,0.0824668,1.3100001,0.748,10.0980005,0.986017337475005,0.9796591039478483
1669243050.3707,0.0027925,-0.0366519,0.0846485,1.1500001,0.574,10.1880007,0.9937855327740871,0.9599743663620226
1669243050.3807,0.0098611,-0.0374373,0.0850848,0.92,0.46,10.5760002,0.9631026300630341,0.9927823552941811
1669243050.3907,0.0061959,-0.038659,0.0844739,1.1440001,0.666,10.4520006,0.9864058807599883,0.9498037953062342
1669243050.4007,0.005236,-0.035692,0.084823,1.0,0.624,10.2840004,0.9840764013171446,0.9419299265182426
1669243050.4107,0.0063705,-0.0385718,0.0849103,1.314,0.652,10.7220001,0.9817451416072448,0.8720491482782676
1669243050.4207,0.0066323,-0.0299324,0.0856084,1.064,0.6620001,10.4440002,0.9658210978576254,0.9150275114186748
1669243050.4306,0.0037525,-0.030456,0.0847357,0.9480001,0.65,10.1020002,0.9856292392567857,0.9229013802066666
1669243050.4406,0.0037525,-0.0272271,0.0863938,1.25,0.618,10.592001,0.9930088912708845,0.8753297765702823
1669243050.4507,0.0041888,-0.0190241,0.0849103,1.1900001,0.674,10.1540003,0.9588304341952737,0.9274943910471802
1669243050.4606,0.0043633,-0.0234747,0.0846485,1.2360001,0.576,10.1060009,0.9805804018858227,0.9835961367656139
1669243050.4707,0.003927,-0.0163188,0.0843867,1.056,0.588,10.5420008,0.9650444563544226,0.956037415564065
1669243050.4807,0.0063705,-0.0097738,0.0856084,0.932,0.744,10.3140001,0.987182967329955,0.9678481203222824
1669243050.4907,0.0048869,-0.007854,0.0865683,1.1780001,0.65,10.0480003,0.9891247936213435,0.9812995329215872
1669243050.5006,0.0043633,-0.0022689,0.0869174,1.222,0.688,9.6680002,0.97436593465991,0.9511161614507715
1669243050.5106,0.0008727,-0.0018326,0.0865683,1.108,0.686,10.0340004,0.980968945170806,0.9589900630466864
1669243050.5207,0.0013963,0.001309,0.0869174,1.044,0.48,10.9860001,0.9984462719268308,0.8881250307032608
1669243050.5307,0.0053233,0.0062832,0.0867429,1.0140001,0.682,10.3440008,0.9611603587048816,0.9229015114383596
1669243050.5406,0.0002618,0.008203,0.0856084,1.286,0.906,9.7860003,0.980968055037278,0.9898294453481734
1669243050.5507,-0.0034907,0.0143117,0.0877901,1.258,0.9,9.6000004,0.9487314242530559,0.9639113007560184
1669243050.5607,0.0102102,0.0132645,0.0883137,1.1580001,0.638,9.8160009,0.9724241083685214,0.9760503144028623
1669243050.5706,0.0169297,0.0137881,0.0882264,1.028,0.674,9.9360008,0.968151912500761,0.9957350027768028
1669243050.5806,0.014399,0.0116064,0.0869174,0.994,0.67,9.7320004,0.973200749871724,0.9603023471714156
1669243050.5907,0.0081158,0.0120428,0.0879646,1.1220001,0.762,9.6940002,0.9786385755944342,0.9701448061861178
1669243050.6007,0.0019199,0.0101229,0.0862193,1.0880001,0.768,9.7160006,0.9561115213339186,0.9990158279163571
1669243050.6106,-0.0007854,0.0077667,0.0877901,1.1720001,0.646,9.8480005,0.9914551631977152,0.9845802924452947
1669243050.6207,-0.0022689,0.0092502,0.0870047,1.0400001,0.6580001,9.5280008,0.9902904234762934,0.9278226343199598
1669243050.6307,-8.73e-05,0.0075049,0.0866556,1.192,0.9160001,9.1200008,0.980968945170806,0.9996719371707986
1669243050.6407,-0.0004363,0.0074176,0.0871792,0.946,0.734,9.1280003,0.9965048907022063,0.9311032626119745
1669243050.6506,0.0011345,0.0076794,0.0857829,1.1040001,0.686,9.6480007,0.9980581737086115,0.8966549595338082
1669243050.6607,0.0057596,0.0089012,0.0853466,1.0320001,0.594,9.9720001,0.9759192176663152,0.9737537597707202
1669243050.6707,0.0006109,0.0082903,0.0864811,1.1340001,0.688,9.6640005,0.9794152170976369,0.9816276285587117
1669243050.6807,-0.0031416,0.0034907,0.0879646,1.0700001,0.766,9.2080002,0.9965044456354423,0.9274944402590651
1669243050.6906,-0.0034907,-0.0021817,0.0882264,0.9860001,0.724,9.6780005,0.9968929889204255,0.9435703226840582
1669243050.7007,-0.0013963,-0.0031416,0.0871792,1.0120001,0.752,10.0180006,0.9902899784095294,0.9353683746629031
1669243050.7107,0.0029671,-0.0031416,0.0856957,0.89,0.568,9.8520002,0.9996114567150167,0.922573218953695
1669243050.7208,-0.0004363,-0.0093375,0.0850848,1.0600001,0.708,9.658,0.9864067708935164,0.9809714208805008
1669243050.7306,-0.0027925,-0.0080285,0.0849103,1.0480001,0.8060001,9.7080002,0.996115902350459,0.9776905629330226
1669243050.7407,-0.0032289,-0.0064577,0.0859575,1.0660001,1.0020001,9.4140005,0.9996119017817808,0.9868768798853601
1669243050.7507,0.0043633,-0.0072431,0.0877901,0.882,0.79,9.4060001,0.983299314747178,0.9337278964772795
1669243050.7606,0.0055851,-0.0123046,0.0885755,0.956,0.786,9.7540007,0.9685395656522163,0.9314313418451378
1669243050.7707,0.0050615,-0.0150971,0.0882264,1.01,0.478,9.6420002,0.9914556082644794,0.9399614183113404
1669243050.7807,0.0066323,-0.0193732,0.0862193,0.92,0.666,9.8100004,0.9829103263954306,0.9563654291813815
1669243050.7907,0.003927,-0.0223402,0.0876155,1.0200001,0.6760001,10.1980009,0.9926212381194293,0.9183081561146511
1669243050.8007,-0.0009599,-0.0269653,0.087441,0.844,0.716,9.8320007,0.9933974345558678,0.9176520468602098
1669243050.8106,-0.0019199,-0.0307178,0.0869174,0.9160001,0.876,9.9380007,0.9813565983222614,0.9445545931914711
1669243050.8206,-0.0018326,-0.0300197,0.0880519,1.008,0.804,10.2460003,0.9984462719268308,0.9461950877810562
1669243050.8306,8.73e-05,-0.0281871,0.0877901,0.7600001,0.832,10.1140003,0.9829107714621945,0.9422580713672524
1669243050.8407,0.0049742,-0.0320268,0.0906698,1.0220001,0.8,10.2740002,0.9483442161683645,0.9360245659371531
1669243050.8506,0.0077667,-0.0271399,0.0885755,0.8980001,0.788,10.1660004,0.9813574884557895,0.9599743663620224
1669243050.8606,0.0075049,-0.0272271,0.0884882,0.9300001,0.684,10.3620005,0.99883437014505,0.9796590711399246
1669243050.8707,0.0046251,-0.0289725,0.0885755,0.918,0.744,10.2560005,0.9953397059140204,0.990485685834308
1669243050.8807,0.0044506,-0.0329867,0.0892736,0.8980001,0.634,10.1240005,0.9798037603826203,0.9570216368595923
1669243050.8906,0.0010472,-0.0354302,0.0883137,1.0420001,0.688,10.6600008,0.9914556082644793,0.8795948722172491
1669243050.9006,0.0024435,-0.0333358,0.0870919,0.7180001,0.636,10.4960003,0.9914551631977153,0.911418525026149
1669243050.9107,0.0016581,-0.03831,0.087441,0.724,0.848,10.2480001,0.9798033153158562,0.9950787622906683
1669243050.9207,0.0003491,-0.0371755,0.0876155,0.942,0.754,10.6300001,0.9899014351245461,0.9169959540097306
1669243050.9306,0.0031416,-0.0342957,0.0880519,1.044,0.7040001,10.4800005,0.9984462719268308,0.9839241995948153
1669243050.9407,0.0101229,-0.0327249,0.0885755,0.878,0.71,10.5120001,0.9735892931567073,0.9790028470577519
1669243050.9507,0.0123918,-0.0315032,0.0902335,0.7360001,0.748,10.4980001,0.9879600538999218,0.9806433416473376
1669243050.9607,0.0115192,-0.0275762,0.0893609,0.8,0.6620001,10.4240007,0.9747549230116573,0.9842522952319404
1669243050.9706,0.0095993,-0.0257436,0.0883137,1.12,0.708,10.5460005,0.9786381305276702,0.9199487163200837
1669243050.9806,0.0089012,-0.0246091,0.0892736,0.816,0.66,10.5900002,0.996115902350459,0.9494757488809946
1669243050.9907,0.0087266,-0.0300197,0.0879646,0.928,0.688,10.9140005,0.9825222281772112,0.9238855686942711
1669243051.0007,0.007854,-0.0239983,0.0884882,0.794,0.798,10.6220007,0.9716474668653188,0.9481635139681501
1669243051.0106,0.0066323,-0.0257436,0.0878773,0.6580001,0.826,10.6560001,0.9996114567150167,0.9878609863531561
1669243051.0207,0.0098611,-0.0250455,0.0884882,1.0220001,0.7780001,10.7740002,0.9860177825417691,0.9288067735956793
1669243051.0307,0.0167552,-0.0175406,0.0879646,1.01,0.7180001,10.1460009,0.994951162629037,0.8851723668166775
1669243051.0407,0.0185878,-0.0191986,0.0886627,0.7320001,0.8800001,10.3620005,0.9813574884557895,0.9835960875537286
1669243051.0506,0.0163188,-0.0163188,0.0889245,0.8,0.692,10.8500004,0.9782495872426871,0.9396334703098709
1669243051.0606,0.0195477,-0.0139626,0.0909317,0.9440001,0.6,10.46,0.987182522263191,0.9445545603835476
1669243051.0707,0.0169297,-0.0132645,0.0889245,1.0220001,0.9620001,10.4940004,0.9763077609512985,0.922245139720532
1669243051.0807,0.0172788,-0.011781,0.0910189,0.864,0.714,10.1340008,0.9957273590654756,0.8743456865064478
1669243051.0906,0.0202458,-0.0171915,0.0916298,0.78,0.7960001,10.0860004,0.9599956189834598,0.9917979699590369
1669243051.1006,0.0162316,-0.0157952,0.0918043,0.8380001,0.846,10.3000002,0.9766963042362818,0.9471792762686607
1669243051.1107,0.0110828,-0.0150971,0.0917171,0.698,0.9760001,10.0500002,0.9735892931567074,0.9573496996887942
1669243051.1207,0.0132645,-0.0156207,0.0933751,0.844,0.816,10.3900003,0.9805804018858228,0.9465230849944111
1669243051.1306,0.016057,-0.0088139,0.0947714,0.9220001,0.9300001,10.3640003,0.9883481521181409,0.9727693908395377
1669243051.1408,0.0153589,-0.0069813,0.0946841,0.558,0.874,9.5880003,0.9883481521181409,0.8038085857605299
1669243051.1507,0.0185005,-0.0079412,0.097913,0.7960001,0.7820001,9.9880009,0.9673748259307945,0.9104342381147745
1669243051.1607,0.0167552,-0.0036652,0.094335,0.698,0.7960001,10.2040005,0.9572767061221046,0.9783468526310422
1669243051.1706,0.0148353,-0.006545,0.0966912,0.734,0.8420001,10.1400003,0.9852411410385665,0.9970473197094551
1669243051.1807,0.0076794,-0.0047997,0.0940732,0.8840001,0.862,10.1060009,0.9487318693198199,0.9776905137211379
1669243051.1907,0.0075049,-0.0010472,0.0954695,0.784,1.0500001,9.5680008,0.9887366954031243,0.9261821561343362
1669243051.2006,0.0059341,-0.0023562,0.0973021,0.7040001,0.95,9.5960007,0.9930088912708844,0.9750659618756408
1669243051.2107,0.0044506,-0.0002618,0.0957313,0.998,0.9860001,9.6680002,0.9770848475212651,0.9340561561540208
1669243051.2207,0.0090757,0.0012217,0.0957313,0.826,0.8980001,9.5400009,0.9751430212298766,0.9363527435940862
1669243051.2307,0.0089884,-0.0012217,0.095295,0.614,0.836,10.1080008,0.9976696304236282,0.9517723855329447
1669243051.2406,0.0109083,8.73e-05,0.0925024,0.786,0.84,10.0240002,0.9910670649794959,0.9849084536982663
1669243051.2507,0.0070686,0.0006981,0.0935496,0.664,1.044,9.4620008,0.9902899784095294,0.921261082464621
1669243051.2607,0.0010472,-0.0034034,0.0922406,0.9480001,0.918,10.0460005,0.9794152170976369,0.8782826373044055
1669243051.2707,0.0,-0.0020071,0.0948586,0.812,0.896,9.5440006,0.9992233584967974,0.8917338530561701
1669243051.2807,-0.0002618,-0.0071559,0.0925024,0.598,0.934,9.3180008,0.9864058807599884,0.9340561069421358
1669243051.2907,0.0,-0.0085521,0.0932006,0.802,0.876,10.0180006,0.9918437064826986,0.8612225171799227
1669243051.3007,0.0010472,-0.0049742,0.0920661,0.7600001,0.9300001,9.9100008,0.9836874129653972,0.9842522624240166
1669243051.3107,0.0,-0.0135263,0.0910189,0.854,0.8420001,9.9020004,0.9712589235803355,0.9996718387470287
1669243051.3207,-0.0031416,-0.0156207,0.0911062,0.868,0.942,9.7800007,0.9763077609512985,0.9986877158752707
1669243051.3306,-0.0012217,-0.0176278,0.0911935,0.64,0.9,9.5980005,0.9992233584967973,0.9258540604972111
1669243051.3407,-0.0007854,-0.0274889,0.0919788,0.7220001,0.868,10.0240002,0.9545582383275135,0.9219171753151003
1669243051.3507,0.0023562,-0.0282743,0.0901463,0.622,0.8420001,10.1080008,0.9976691853568642,0.9931104345273442
1669243051.3607,0.0016581,-0.0339467,0.0911062,0.656,0.83,10.1680002,0.9735888480899432,0.9865488662680434
1669243051.3707,0.0006981,-0.037001,0.0896227,0.84,0.8280001,10.3040009,0.997281532205409,0.9478352706953704
1669243051.3807,-0.0004363,-0.0366519,0.0907571,0.668,1.0120001,9.9320002,0.9976700754903921,0.9409456232029061
1669243051.3907,-0.0048869,-0.0439823,0.0894481,0.906,0.95,9.8980007,0.9533926084725635,0.9767063088295713
1669243051.4007,0.0054978,-0.0411898,0.0918043,0.86,0.772,10.0100002,0.9992229134300334,0.9816274809230568
1669243051.4107,0.013439,-0.0424988,0.0918043,0.574,0.832,10.2840004,0.9588304341952737,0.9921260655961617
1669243051.4207,0.0102974,-0.0459022,0.0890118,0.6300001,0.85,10.4160004,0.988736695403124,0.966207822580237
1669243051.4307,0.0093375,-0.0480838,0.0890991,0.788,0.666,10.4800005,0.9941740760590704,0.9937664945699006
1669243051.4406,0.0061959,-0.0506145,0.0914553,0.726,0.924,10.6320009,0.9922322497676819,0.9429141478137701
1669243051.4506,0.0066323,-0.0518363,0.0932006,0.744,0.8240001,10.7300005,0.9848521526868191,0.9973754153465803
1669243051.4607,0.0086394,-0.0533198,0.0946841,0.514,0.7920001,10.618,0.9778619340912318,0.9386491013786884
1669243051.4707,0.0082903,-0.0542797,0.0923279,0.6,0.798,10.6420002,0.992231804700918,0.9809713880725774
1669243051.4806,0.0061087,-0.0479966,0.0932878,0.7600001,0.7180001,10.6400003,0.9665986294943558,0.9872048606947531
1669243051.4907,0.0068941,-0.0421497,0.0919788,0.768,0.9020001,10.1780005,0.9716470217985548,0.95570931992694
1669243051.5007,0.0077667,-0.0382227,0.0929388,0.702,0.83,10.3400002,0.9906785216945128,0.9960631148178889
1669243051.5107,0.0068068,-0.0339467,0.0945968,0.574,0.8980001,10.5980005,0.9840759562503806,0.9675200903010044
1669243051.5207,0.0096866,-0.0322886,0.0945096,0.744,0.83,10.5840006,0.994950717562273,0.9855645137408228
1669243051.5307,0.0041888,-0.0327249,0.095295,0.808,0.788,10.7720003,0.9809685001040421,0.9655517297297571
1669243051.5407,-0.0018326,-0.0321141,0.0917171,0.79,0.816,10.7140007,0.9708708253621161,0.9921261640199316
1669243051.5507,-0.0043633,-0.0315032,0.0920661,0.554,0.74,10.6220007,0.9899023252580741,0.9337279949010495
1669243051.5607,0.0009599,-0.0267035,0.0927643,0.552,0.846,10.5280008,0.9665981844275918,0.9983595874302229
1669243051.5707,0.0032289,-0.0211185,0.0924152,0.6440001,0.978,10.5820007,0.9836878580321612,0.954396986590326
1669243051.5807,0.0029671,-0.0172788,0.0908444,0.7320001,0.9820001,10.6340008,0.9747544779448933,0.9763782624043318
1669243051.5906,0.0112574,-0.0158825,0.0952077,0.698,0.8200001,10.9420004,0.9498974991747698,0.9816276449626735
1669243051.6007,0.0097738,-0.0109956,0.093026,0.784,0.7920001,11.0200005,0.9619370002080841,0.977690595740946
1669243051.6107,0.0101229,-0.0059341,0.0918043,0.608,0.72,10.3640003,0.9735892931567074,0.8517081373983841
1669243051.6206,0.0048869,-0.005236,0.0933751,0.802,0.946,9.6820002,0.9805804018858228,0.9570216040516691
1669243051.6306,0.0027053,-0.0024435,0.0918043,0.756,0.9260001,9.6260004,0.9708708253621162,0.9799872159889349
1669243051.6407,0.0050615,-0.0011345,0.0955568,0.686,0.786,9.8220005,0.9786381305276702,0.9977034453678579
1669243051.6508,0.0022689,-0.0036652,0.0910189,0.604,0.8,10.1980009,0.9786376854609062,0.9494757324770325
1669243051.6607,0.0011345,-0.0034907,0.0911062,0.592,0.8240001,10.5760002,0.9945630644108178,0.9360246479569614
1669243051.6707,0.0048869,-0.0059341,0.0914553,0.826,0.7500001,10.4980001,0.9708708253621162,0.9865487678442735
1669243051.6807,0.0053233,-0.0044506,0.0903208,0.7500001,1.074,10.0700006,0.9902904234762935,0.9704729510351272
1669243051.6906,0.0044506,-0.0064577,0.0917171,0.626,0.886,10.0620003,0.9887366954031243,0.9475072570780539
1669243051.7007,-0.0009599,-0.0081158,0.091368,0.518,0.8240001,10.1520004,0.9902899784095294,0.9868768634813986
1669243051.7107,0.0038397,-0.0106465,0.0934624,0.422,0.7360001,10.2380009,0.9665981844275918,0.9839241995948153
1669243051.7207,0.0047124,-0.0143117,0.093026,0.8060001,0.8380001,10.8260002,0.9817455866740088,0.8238215502151737
1669243051.7307,0.0073304,-0.0087266,0.0902335,0.632,0.8520001,10.3040009,0.97436593465991,0.8881250799151454
1669243051.7407,0.0089012,-0.0136136,0.0923279,0.9480001,0.594,9.7140007,0.9619370002080841,0.9127308911706863
1669243051.7507,0.0056723,-0.011781,0.090408,0.868,1.0220001,9.0020008,0.9689281089371996,0.9402895959682736
1669243051.7607,0.0012217,-0.015708,0.0920661,0.6440001,0.8940001,9.5580006,0.994950717562273,0.9665359346213234
1669243051.7706,0.0001745,-0.0225147,0.0935496,0.68,0.8420001,10.0180006,0.9677638142825418,0.9271664266417484
1669243051.7807,0.008203,-0.0260927,0.0947714,0.372,0.708,10.1460009,0.9429055003121264,0.9484915932013133
1669243051.7907,0.0137881,-0.0355174,0.0948586,0.626,0.9480001,10.7540007,0.9328082706369645,0.8192283589310816
1669243051.8007,0.0130027,-0.0361283,0.0914553,0.652,0.6020001,10.8240004,0.9840764013171446,0.9589900466427246
1669243051.8107,0.0140499,-0.039968,0.093986,0.664,0.786,10.0420008,0.9669867277125752,0.9038728338950903
1669243051.8206,0.0107338,-0.043546,0.090059,0.966,0.816,10.0140009,0.9836878580321612,0.9501319401552439
1669243051.8307,0.0085521,-0.0322013,0.0919788,0.5420001,0.95,9.6020002,0.9483428809680726,0.8848440907359747
1669243051.8407,0.0164061,-0.0313287,0.0925024,0.398,0.84,9.9260006,0.9665977393608278,0.988517177627406
1669243051.8507,0.0128282,-0.0277507,0.0929388,0.58,0.882,10.6400003,0.9700937387921497,0.8461308888583808
1669243051.8607,0.019984,-0.0237365,0.091368,0.8200001,0.8200001,10.6420002,0.9930088912708847,0.9704728526113575
1669243051.8707,0.0256563,-0.0261799,0.0947714,1.25,0.774,10.2060003,0.9487323143865839,0.9914699235337974
1669243051.8807,0.0181514,-0.0238237,0.0917171,0.744,0.832,9.2420006,0.942517847160671,0.7683761105987212
1669243051.8907,0.0164061,-0.0302815,0.0923279,0.458,0.9120001,9.5060005,0.9763077609512983,0.9904857022382695
1669243051.9007,0.0205076,-0.0280998,0.0916298,0.396,0.7360001,10.1420002,0.9945626193440538,0.9347122818124238
1669243051.9107,0.0244346,-0.0274889,0.0911062,0.406,0.794,10.46,0.9875715106149384,0.9366807572114026
1669243051.9207,0.0216421,-0.0253073,0.0928515,0.6300001,0.738,10.7840004,0.9856296843235499,0.9192924266220639
1669243051.9307,0.0222529,-0.0221657,0.0907571,0.906,0.612,10.4240007,0.9794147720308729,0.9655517133257958
1669243051.9407,0.0212057,-0.0143117,0.090408,0.862,1.0380001,9.9860001,0.9588299891285098,0.9908136994516241
1669243051.9506,0.0191986,-0.0089012,0.091368,0.724,0.878,9.6680002,0.9712593686470995,0.8989515961857586
1669243051.9607,0.0260054,-0.0082903,0.0953822,0.518,0.89,9.224,0.9545582383275135,0.8953426918130408
1669243051.9707,0.0232129,-0.007854,0.0923279,0.66,0.9440001,9.8120003,0.972036010150302,0.8713928749842097
1669243051.9806,0.0232129,-0.0036652,0.0932878,0.476,0.74,10.092,0.9856292392567858,0.9822836557933449
1669243051.9907,0.0204204,-0.0084648,0.0924152,0.998,0.742,10.3840008,0.994950717562273,0.866143541637753
1669243052.0007,0.0144862,-0.0047997,0.091368,0.9720001,0.794,10.0440006,0.9526159669693609,0.948491543989428
1669243052.0107,0.0122173,-0.0102974,0.0931133,0.7820001,0.788,9.2780008,0.9778619340912317,0.8421939216564617
1669243052.0206,0.0095993,-0.0118682,0.0932006,0.618,0.938,9.3740005,0.9957278041322397,0.9865488170561587
1669243052.0307,0.008203,-0.0080285,0.0918043,0.236,0.924,9.3380003,0.9704818370103689,0.9291348528288426
1669243052.0407,0.0092502,-0.0123046,0.0934624,0.586,0.8840001,10.1480007,0.9689281089371997,0.8162755474088434
1669243052.0506,0.0092502,-0.0055851,0.0918916,0.862,1.028,10.2820005,0.9631026300630341,0.9091221016257003
1669243052.0607,0.0132645,-0.0025307,0.0914553,1.0700001,0.904,10.0640001,0.9976696304236282,0.9780186421661855
1669243052.0708,0.0125664,-0.0017453,0.0917171,0.752,1.0200001,9.5740004,0.9945626193440538,0.8864846345374449
1669243052.0808,0.015708,-0.0057596,0.0915425,0.59,0.8280001,9.2880001,0.9689285540039636,0.8950145961759164
1669243052.0907,0.0164061,-0.0123046,0.0931133,0.868,0.86,9.8800001,0.9607722604866624,0.8520362822473939
1669243052.1007,0.0150098,-0.006545,0.0907571,0.776,0.802,9.5120001,0.9576648043403239,0.9150274786107514
1669243052.1107,0.0071559,-0.0116064,0.0916298,0.668,0.854,9.7680006,0.9914556082644793,0.9671919946638793
1669243052.1207,0.0043633,-0.0073304,0.0912807,0.668,0.8660001,9.7280006,0.9669862826458112,0.9954069071396778
1669243052.1307,0.0043633,-0.0077667,0.0918043,0.642,1.0380001,9.4540005,0.9957278041322397,0.9790029126735986
1669243052.1407,0.0020944,-0.0100356,0.0908444,0.788,1.024,9.5760002,0.9957278041322397,0.9583340030041304
1669243052.1507,0.0042761,-0.0083776,0.0929388,0.712,0.9020001,9.4820004,0.9883477070513769,0.9521004811700695
1669243052.1606,0.0044506,-0.0122173,0.0903208,0.6720001,0.942,9.5280008,0.9937859778408511,0.9924541120214018
1669243052.1707,0.0027925,-0.0099484,0.0916298,0.56,0.96,10.1560001,0.9883481521181409,0.9124029759771397
1669243052.1807,0.0036652,-0.0116064,0,0.758,0.862,10.2600002,0.9883481521181409,0.9665359018133997
1669243052.1907,0.0036652,-0.0119555,0.0918043,0.8280001,0.8980001,10.1320009,0.9980581737086114,0.9963912760708602
1669243052.2007,0.0062832,-0.0128282,0.0898845,0.7180001,0.8840001,10.0240002,0.9930084462041205,0.9619426941253463
1669243052.2107,0.0058469,-0.0172788,0.0917171,0.74,0.862,10.1540003,0.9739773913749267,0.9786748662483585
1669243052.2207,0.0075049,-0.01309,0.0895354,0.592,0.9540001,9.8120003,0.9790262287458896,0.9347122490045005
1669243052.2307,0.0047124,-0.0124791,0.0909317,0.632,1.0220001,9.2480001,0.991067064979496,0.9251979020308849
1669243052.2406,0.0035779,-0.0159698,0.0912807,0.674,0.918,9.6200008,0.9879600538999216,0.9491476204359461
1669243052.2507,0.005236,-0.0178896,0.0917171,0.8520001,0.896,10.2860003,0.9821336848922281,0.8651595007858037
1669243052.2607,0.009512,-0.0202458,0.0924152,0.79,0.8560001,10.0780001,0.9673752709975585,0.949147686051793
1669243052.2707,0.0069813,-0.0247837,0.0914553,0.586,0.9440001,10.1020002,0.9953388157804923,0.9849083716784581
1669243052.2807,0.0048869,-0.0333358,0.0903208,0.6440001,0.682,10.3980007,0.9763082060180625,0.9849082732546882
1669243052.2908,0.003927,-0.0335103,0.0918043,0.648,0.648,9.9940004,0.9968929889204255,0.9288067407877556
1669243052.3007,-0.0006981,-0.0358665,0.0898845,0.7,1.028,9.9060001,0.9875715106149383,0.9435704211078279
1669243052.3107,-0.0034907,-0.0328122,0.0914553,0.712,1.034,10.276,0.9941736309923065,0.936352645170316
1669243052.3207,0.0018326,-0.0307178,0.0914553,0.668,0.906,10.2940006,0.9832988696804139,0.9747379974702096
1669243052.3307,0.0096866,-0.0280998,0.0933751,0.7460001,0.924,10.6500006,0.9681519125007612,0.9258540769011727
1669243052.3407,0.0131772,-0.0237365,0.0931133,0.952,0.738,10.6060009,0.9949507175622732,0.9960630820099655
1669243052.3507,0.0129154,-0.0204204,0.093026,0.554,0.8520001,10.0560007,0.9836874129653972,0.8631909433670168
1669243052.3607,0.0082903,-0.0277507,0.0927643,0.614,0.9080001,10.1360006,0.9891247936213434,0.967848251553976
1669243052.3707,-0.0002618,-0.0284489,0.0925024,0.762,0.786,10.4980001,0.9662096411426084,0.9363527271901241
1669243052.3807,0.0047997,-0.0262672,0.0933751,0.5840001,0.896,10.6060009,0.9856292392567857,0.9934382677010828
1669243052.3907,0.0063705,-0.0298451,0.092677,0.636,0.766,10.8280001,0.9801918586008395,0.9763784428479099
1669243052.4007,0.0034034,-0.0253073,0.0911935,0.576,0.932,10.3780003,0.9599956189834598,0.943570404703866
1669243052.4107,0.0036652,-0.0221657,0.0918916,0.906,0.9080001,10.0800009,0.9902899784095294,0.9986875682396159
1669243052.4207,0.0056723,-0.0153589,0.0929388,0.734,0.964,10.2600002,0.9832988696804139,0.9895015957704731
1669243052.4307,0.0067195,-0.0178896,0.0922406,0.79,0.6720001,10.4500008,0.987183412396719,0.9924542924649795
1669243052.4407,0.0089884,-0.0193732,0.0925024,0.56,0.928,10.5440006,0.9821336848922281,0.9803152952220975
1669243052.4507,0.0129154,-0.019984,0.0918916,0.6620001,0.9220001,10.8120003,0.9825222281772114,0.9402895959682736
1669243052.4608,0.011781,-0.0192859,0.0938987,0.7460001,0.83,10.7340002,0.9992229134300333,0.9858925601660626
1669243052.4707,0.0116937,-0.0230383,0.090408,0.83,0.756,10.3480005,0.9992238035635614,0.9383211369732564
1669243052.4807,0.0110828,-0.0259181,0.0924152,0.692,0.726,10.0980005,0.9809685001040421,0.9314314402689075
1669243052.4907,0.0092502,-0.0246964,0.0921534,0.8060001,1.0200001,10.1680002,0.9852411410385664,0.9215890796779752
1669243052.5007,0.0130027,-0.0191986,0.0933751,0.342,0.862,9.8440008,0.9976696304236282,0.84481858832969
1669243052.5107,0.0139626,-0.0294088,0.0933751,0.5840001,1.0960001,10.8800001,0.9502855973929891,0.7519721817484883
1669243052.5207,0.0155334,-0.0254818,0.0921534,1.054,0.66,11.0740004,0.9840759562503806,0.9625989510154426
1669243052.5307,0.0152716,-0.0216421,0.092677,0.808,0.9820001,10.2340002,0.9840759562503806,0.8746737165277261
1669243052.5407,0.0138754,-0.0299324,0.0911062,0.598,0.798,10.2880001,0.9763077609512985,0.9442264975543456
1669243052.5507,0.017017,-0.0309796,0.093026,0.6440001,0.818,10.0820007,0.9728126516535047,0.9770345685063132
1669243052.5607,0.0146608,-0.0333358,0.090408,0.798,0.872,10.1480007,0.9883481521181409,0.9550531614606137
1669243052.5707,0.0132645,-0.0315905,0.0946841,0.652,0.794,10.6860008,0.994950717562273,0.9484915439894284
1669243052.5807,0.0153589,-0.0315032,0.0931133,0.694,0.876,10.6820002,0.9980581737086115,0.9803153444339827
1669243052.5907,0.0140499,-0.0301069,0.0919788,0.702,0.964,10.3700008,0.9829103263954306,0.9645675412421529
1669243052.6007,0.01309,-0.0279253,0.0936369,0.728,0.9540001,10.6060009,0.9933978796226318,0.9586619838135234
1669243052.6107,0.0191986,-0.0233874,0.0935496,0.744,0.818,10.1620007,0.9933978796226318,0.9074816070361147
1669243052.6209,0.0214675,-0.0239983,0.0949459,0.638,0.8980001,9.75,0.9809685001040421,0.9281505495135063
1669243052.6307,0.0192859,-0.0256563,0.0925897,0.588,0.78,10.0580006,0.9871829673299549,0.977034371658773
1669243052.6407,0.0221657,-0.0218166,0.0923279,0.632,0.8420001,10.3960009,0.9945626193440538,0.9271663446219404
1669243052.6507,0.0214675,-0.0200713,0.091368,0.772,0.934,10.2640009,0.9848525977535831,0.9835960547458058
1669243052.6608,0.0220784,-0.0157952,0.0934624,0.776,0.9820001,9.9040003,0.9930088912708847,0.9494757160730712
1669243052.6707,0.0215548,-0.0154462,0.0938987,0.85,0.846,9.6540003,0.9980581737086115,0.9488196232225913
1669243052.6807,0.0217294,-0.0111701,0.0932006,0.734,0.938,9.8260002,0.9786385755944342,0.9757221531498906
1669243052.6907,0.0241728,-0.0057596,0.0933751,0.58,0.8940001,9.8380003,0.9875710655481743,0.9694886641237528
1669243052.7007,0.022602,-0.0062832,0.0932006,0.6620001,0.8800001,9.8480005,0.9945626193440538,0.9872048606947531
1669243052.7107,0.0246091,-0.0022689,0.0932006,0.708,0.848,9.9880009,0.991066619912732,0.9747378662385162
1669243052.7207,0.022602,0.0030543,0.0925024,0.77,0.9300001,9.9360008,0.9914551631977153,0.9849083552744963
1669243052.7307,0.0245219,0.006545,0.0948586,0.798,0.918,9.5160007,0.965432554572642,0.933727962093126
1669243052.7407,0.0184132,0.0066323,0.0932878,0.7,1.0960001,9.4120007,0.9662096411426085,0.9960630656060042
1669243052.7507,0.017366,0.0084648,0.0945968,0.61,0.9680001,9.658,0.9906789667612768,0.995407005563448
1669243052.7608,0.0182387,0.0100356,0.0948586,0.608,0.876,9.5800009,0.9879596088331576,0.9717853171796648
1669243052.7707,0.0132645,0.0087266,0.0929388,0.642,1.0380001,9.5020008,0.9634911733480175,0.980643325243376
1669243052.7807,0.010472,0.0067195,0.0950332,0.788,0.96,9.8280001,0.9879600538999216,0.935368522298558
1669243052.7908,0.0123918,0.005236,0.0960804,0.9440001,1.1340001,9.5980005,0.9933974345558678,0.983595939918074
1669243052.8007,0.0106465,0.0027053,0.0950332,0.666,0.956,9.4980001,0.9763082060180625,0.9087938747568824
1669243052.8107,0.0098611,-0.0013963,0.096604,0.5700001,1.028,9.658,0.9976696304236282,0.9776906121449078
1669243052.8208,0.0120428,-0.0034907,0.0959931,0.696,0.924,9.4620008,0.9836874129653972,0.97145722154254
1669243052.8307,0.0098611,-0.0076794,0.0972148,0.738,1.1140001,9.3880005,0.9856301293903138,0.9740817733880366
1669243052.8407,0.0070686,-0.013439,0.096604,0.7360001,1.0580001,9.9260006,0.9895128918395628,0.9212609512329273
1669243052.8507,0.0122173,-0.0172788,0.0968658,0.6720001,0.886,10.0080004,0.9588299891285098,0.9747378498345547
1669243052.8607,0.0096866,-0.0235619,0.095295,0.8340001,1.1440001,9.96,0.9902904234762934,0.9389773118435444
1669243052.8707,0.0061087,-0.0294088,0.0959931,0.642,1.0960001,9.6160002,0.9867944240449716,0.9042008803203299
1669243052.8807,0.0076794,-0.037001,0.0966912,0.8800001,1.118,9.7120008,0.9561119664006826,0.9416017980731941
1669243052.8908,0.0113446,-0.0352557,0.0960804,0.692,0.928,9.3520002,0.9941736309923065,0.8789386481350765
1669243052.9007,0.0106465,-0.0401426,0.0968658,0.588,1.1400001,9.6220007,0.9778614890244677,0.9379929265084
1669243052.9107,0.0080285,-0.042237,0.0964294,0.536,0.932,10.342001,0.9957273590654756,0.9245417435645588
1669243052.9209,0.0125664,-0.0443314,0.0976512,0.8,0.8560001,10.5120001,0.9650440112876586,0.9412739484954945
1669243052.9307,0.0027925,-0.0480838,0.095644,0.734,1.0200001,10.5240002,0.964266924717692,0.9819556257720665
1669243052.9407,0.0042761,-0.05044,0.0959058,0.574,0.904,10.4620008,0.9817451416072447,0.9445546916152406
1669243052.9507,0.0049742,-0.0536689,0.0965167,0.766,1.1060001,10.3080006,0.9798033153158563,0.9606305084243872
1669243052.9608,0.0027925,-0.0489565,0.0990474,0.612,1.0580001,9.8900003,0.9805799568190589,0.8982953885075475
1669243052.9707,0.0103847,-0.0500909,0.0977384,0.6760001,1.0680001,10.1760006,0.9669867277125751,0.9409456724147914
1669243052.9807,0.0145735,-0.0445059,0.096953,0.642,0.7920001,10.71,0.9902904234762934,0.9632552407134618
1669243052.9908,0.0158825,-0.0397062,0.0977384,0.71,0.994,10.6220007,0.9879596088331575,0.9701446913583862
1669243053.0007,0.014399,-0.0342957,0.0973894,0.716,1.0380001,10.5220003,0.9677638142825418,0.9917979699590371
1669243053.0107,0.0181514,-0.031765,0.0989602,0.712,0.9220001,10.4200001,0.9875715106149383,0.9635831723109699
1669243053.0207,0.0176278,-0.0336849,0.0996583,0.694,1.026,10.4160004,0.9906785216945128,0.9865487186323885
1669243053.0307,0.0149226,-0.0347321,0.0984366,0.788,0.9020001,10.5200005,0.987183412396719,0.9878610355650411
1669243053.0407,0.016057,-0.0334231,0.0990474,0.598,0.78,10.8140001,0.9980586187753756,0.9970472048817234
1669243053.0507,0.0189368,-0.0271399,0.0975639,0.486,1.054,10.5740004,0.9782500323094511,0.987204959118523
1669243053.0607,0.0132645,-0.0209439,0.0984366,0.64,1.1680001,10.3620005,0.9510622388961918,0.9908137486635087
1669243053.0707,0.0115192,-0.0143117,0.1004437,0.868,1.0760001,10.3740005,0.9716474668653187,0.9757221367459293
1669243053.0807,0.0151844,-0.0089884,0.099571,0.8840001,0.994,10.3920002,0.9887362503363603,0.9921260491922002
1669243053.0907,0.0123918,-0.0057596,0.1001819,0.7600001,1.0,10.2260008,0.9759196627330791,0.9534128473146068
1669243053.1007,0.0132645,-0.0013963,0.1000074,0.694,0.786,10.2140007,0.9836878580321612,0.9521003991502609
1669243053.1107,0.016057,0.0020944,0.0997456,0.564,1.0300001,10.0060005,0.9856296843235497,0.9845802596373718
1669243053.1207,0.010821,0.0068068,0.0991347,0.6760001,1.2040001,9.7540007,0.994950717562273,0.9944226038243421
1669243053.1308,0.008203,0.0102102,0.100531,0.906,0.9620001,9.5940008,0.9902899784095294,0.9717851859479715
1669243053.1407,0.006545,0.0100356,0.0993092,0.68,1.296,9.9720001,0.9864058807599884,0.9202768775730544
1669243053.1507,0.0086394,0.0057596,0.1000074,0.8,1.062,10.4980001,0.9933978796226318,0.9324156779683971
1669243053.1608,0.0118682,0.011781,0.1009673,0.6440001,1.128,10.3620005,0.9545582383275135,0.9629271286723755
1669243053.1707,0.0182387,0.017017,0.0988729,0.66,0.9860001,9.6020002,0.9576648043403239,0.8546608504968523
1669243053.1807,0.0150098,0.021293,0.100531,0.596,1.1340001,9.2620001,0.9879600538999215,0.9580058417511585
1669243053.1907,0.0172788,0.0220784,0.0973894,0.7960001,0.9480001,9.3940001,0.9996119017817806,0.9760501995751304
1669243053.2007,0.0154462,0.0235619,0.0981748,0.686,1.11,9.776,0.9980581737086115,0.9288068556154877
1669243053.2107,0.0124791,0.0192859,0.0973894,0.67,1.1400001,10.1080008,0.96426781485122,0.9432421450271251
1669243053.2207,0.016057,0.0174533,0.0991347,0.836,0.9960001,9.9980001,0.9844644995353639,0.9855643989130913
1669243053.2308,0.0155334,0.0146608,0.0987856,0.786,1.1520001,9.4180002,0.9836874129653972,0.9222452381443017
1669243053.2407,0.0095993,0.0154462,0.098262,0.8940001,1.2540001,8.7560005,0.9747544779448932,0.9258541589209813
1669243053.2507,0.0060214,0.0136136,0.0989602,0.7460001,1.062,8.8580008,0.9790271188794176,0.9609586040615117
1669243053.2607,0.0060214,0.0067195,0.0986984,0.578,0.9680001,9.2940006,0.9681514674339972,0.9714571395227316
1669243053.2708,0.0055851,0.0058469,0.0983493,0.498,0.998,9.6980009,0.9926207930526652,0.9419299429222042
1669243053.2807,0.0101229,0.006545,0.0965167,0.6620001,1.126,9.8340006,0.9848530428203471,0.9297910769110156
1669243053.2907,0.015708,0.0090757,0.0980002,0.784,0.9900001,9.7040005,0.9572767061221046,0.9763782788082936
1669243053.3007,0.0087266,0.0013963,0.0976512,0.8880001,1.296,9.2780008,0.9331963688551838,0.99737541534658
1669243053.3107,0.0060214,-0.0020071,0.0975639,0.8420001,0.966,9.1080008,0.9902899784095294,0.9104343693464679
1669243053.3208,0.0068068,-0.0089012,0.0989602,0.788,1.0220001,9.5800009,0.9596066306317124,0.9222452053363785
1669243053.3307,0.0081158,-0.0075922,0.0993965,0.404,1.092,9.6200008,0.9980581737086115,0.9550531122487291
1669243053.3407,0.0064577,-0.0140499,0.097913,0.68,1.2,9.9500008,0.9852411410385664,0.8828757137607656
1669243053.3508,0.0055851,-0.0080285,0.0985238,0.8380001,1.0960001,9.6300001,0.9720355650835382,0.9563653799694964
1669243053.3608,0.0054105,-0.0100356,0.0993965,1.0120001,1.044,9.3080006,0.9879600538999216,0.9671921422995344
1669243053.3707,0.0007854,-0.0111701,0.0987856,0.6,0.998,8.9940004,0.9817455866740088,0.87336136678715
1669243053.3807,-0.005236,-0.0202458,0.0977384,0.656,1.0300001,9.4800005,0.9444596734520596,0.9058412272742608
1669243053.3908,-0.0051487,-0.0178896,0.0984366,0.6580001,1.0880001,9.7420006,0.9922322497676819,0.9471792106528142
1669243053.4007,-0.0020071,-0.0132645,0.096604,0.7640001,1.11,9.1640005,0.9572767061221046,0.9261821397303743
1669243053.4108,-0.0009599,-0.0146608,0.0986984,0.594,1.1860001,9.2620001,0.9891247936213434,0.9993439071495204
1669243053.4207,0.0033161,-0.0176278,0.0991347,0.872,0.91,9.8220005,0.974366379726674,0.9078096862692779
1669243053.4307,0.0033161,-0.0148353,0.0976512,0.854,1.0300001,9.7540007,0.980968945170806,0.9944226038243419
1669243053.4408,0.0057596,-0.0179769,0.0990474,0.77,0.9580001,9.8060007,0.9689285540039636,0.9829398798755178
1669243053.4507,0.0075922,-0.017017,0.1000074,0.6900001,1.0660001,10.0700006,0.9918432614159346,0.9521004319581846
1669243053.4608,0.006545,-0.0149226,0.0965167,0.56,0.906,9.9140005,0.9704818370103689,0.9268382817927393
1669243053.4707,0.0067195,-0.0062832,0.0977384,0.864,1.0020001,9.6160002,0.9677629241490138,0.9832679919166044
1669243053.4807,0.0002618,0.0010472,0.0967785,0.836,1.1960001,9.2980003,0.9436830319488569,0.9750659946835645
1669243053.4908,-0.0027925,0.0003491,0.0999201,0.754,1.1960001,9.2260008,0.9778614890244678,0.974737981066248
1669243053.5007,-0.0060214,-0.0022689,0.1003564,0.614,0.8840001,9.9000006,0.9751430212298765,0.9635832379268167
1669243053.5107,-0.0077667,0.0015708,0.0967785,0.6760001,1.034,10.4100008,0.9887366954031243,0.8815633640201898
1669243053.5208,-0.0042761,0.0031416,0.0985238,0.814,1.0220001,9.8280001,0.9992233584967973,0.9251978200110765
1669243053.5307,-0.0049742,-0.0047124,0.0991347,1.0500001,1.0380001,9.3580008,0.9871829673299549,0.9642394948169128
1669243053.5407,-0.0067195,-0.0041888,0.0978257,0.932,1.1860001,9.2860003,0.9996114567150166,0.9931102376798046
1669243053.5507,-0.0083776,-0.0033161,0.0990474,0.652,0.812,9.566,0.991067064979496,0.9386491177826499
1669243053.5608,-0.0044506,-0.0017453,0.0987856,0.388,1.092,9.8520002,0.97436593465991,0.9504600029844453
1669243053.5707,-0.0086394,-0.002618,0.096604,0.61,1.1680001,10.0980005,0.987182522263191,0.9107623829637846
1669243053.5807,-0.0151844,-0.0031416,0.0977384,0.956,1.0580001,10.1260004,0.9634911733480174,0.9566935576264293
1669243053.5908,-0.0077667,0.0010472,0.0980875,1.1600001,1.018,9.9580002,0.959218532413493,0.9993438087257505
1669243053.6009,-0.0076794,-0.0037525,0.0974766,0.708,1.2240001,9.5840006,0.991067064979496,0.8982955033352786
1669243053.6107,-0.0029671,-0.0111701,0.0980875,0.784,0.9760001,9.6040001,0.9852406959718024,0.9750658962597946
1669243053.6208,-0.0006109,-0.0100356,0.0973894,0.562,0.998,9.6720009,0.9813570433890254,0.9783468854389659
1669243053.6308,-0.0034034,-0.0124791,0.0968658,0.74,1.1240001,10.0660009,0.9790266738126536,0.8855003312221089
1669243053.6407,-0.0051487,-0.0099484,0.0987856,0.65,0.952,10.1520004,0.994951162629037,0.9711289290578753
1669243053.6507,-0.0033161,-0.0180642,0.0971276,0.668,1.008,10.302,0.9794147720308729,0.9632551915015771
